ACCELEROMETER X (m/s²),ACCELEROMETER Y (m/s²),ACCELEROMETER Z (m/s²),GRAVITY X (m/s²),GRAVITY Y (m/s²),GRAVITY Z (m/s²),LINEAR ACCELERATION X (m/s²),LINEAR ACCELERATION Y (m/s²),LINEAR ACCELERATION Z (m/s²),GYROSCOPE X (rad/s),GYROSCOPE Y (rad/s),GYROSCOPE Z (rad/s),MAGNETIC FIELD X (μT),MAGNETIC FIELD Y (μT),MAGNETIC FIELD Z (μT),ORIENTATION X (°),ORIENTATION Y (°),ORIENTATION Z (°),PROXIMITY (i),SOUND LEVEL (dB),LOCATION Latitude : ,LOCATION Longitude : ,LOCATION Altitude ( m),LOCATION Speed ( Kmh),LOCATION Accuracy ( m),Satellites in range,Temperature (F),Level (%),Voltage (Volt),Time since start in ms ,YYYY-MO-DD HH-MI-SS_SSS
-0.9553,6.0142,6.9887,1.9349,7.2055,6.3646,-2.8902,-1.1912,0.6241,-0.3855,0.8237,0.7061,21.98,1.84,-23.52,296.99,-50.07,-16.36,2,55.734,19.519304,-96.91517,,,164.51613,0 / 3,86.4,90,4.115,71,2014-11-08 13:52:55:131
-0.3855,4.2952,8.266,2.3434,6.4066,7.0452,-2.7289,-2.1114,1.2208,-0.0512,0.4958,0.3474,24.31,-2.51,-21.7,281.36,-42,-20.17,2,54.982,19.519304,-96.91517,,,164.51613,0 / 3,86.4,90,4.115,591,2014-11-08 13:52:55:651
0.7709,0.0455,9.1602,2.8094,2.2039,9.1335,-2.6971,-1.8761,2.1002,-0.183,0.3672,0.5324,25.94,4.7,-22.69,284.61,-18.73,-16.77,2,52.904,19.519304,-96.91517,,,164.51613,0 / 9,86.4,90,4.115,1112,2014-11-08 13:52:56:172
0.8523,1.2857,9.4128,3.4089,0.9235,9.1486,-3.0084,0.3128,1.2494,0.2342,0.5807,0.7415,21.7,-7.25,-24.7,259.69,-5.98,-22.98,2,63.056,19.519304,-96.91517,,,164.51613,0 / 10,86.4,90,4.115,1655,2014-11-08 13:52:56:715
1.2677,1.1708,7.7141,2.9591,1.7599,9.1824,-1.6914,-0.5891,-1.4683,0.182,0.5387,-0.0234,20.65,-12.48,-23.78,252.05,-10.34,-17.86,2,73.874,19.519304,-96.91517,,,164.51613,0 / 10,86.4,90,4.115,2158,2014-11-08 13:52:57:218
1.7071,1.8555,11.1235,2.5163,1.3947,9.3751,-0.8093,0.4609,1.7483,-0.2708,-0.2247,0.2408,22.32,-13.31,-23.18,248.86,-8.18,-15.02,2,68.209,19.519304,-96.91517,,,164.51613,0 / 10,86.4,90,4.115,2666,2014-11-08 13:52:57:726
1.5814,2.5163,9.1518,2.9089,2.3057,9.077,-1.3275,0.2106,0.0748,-0.1103,-0.0666,-0.7881,14.52,-12.54,-15.24,240.91,-12.94,-17.84,2,49.93,19.519304,-96.91517,,,164.51613,0 / 10,86.4,90,4.115,3249,2014-11-08 13:52:58:309
1.2222,1.7166,9.1255,0.9641,3.2335,9.2079,0.2581,-1.5168,-0.0824,-0.2411,-0.3538,-0.8795,19.49,12.74,-19.92,310.91,-19.25,-5.98,2,57.245,19.519304,-96.91517,,,164.51613,0 / 10,86.4,90,4.115,3765,2014-11-08 13:52:58:825
1.172,1.5562,8.272,0.8711,2.8123,9.3543,0.3008,-1.2561,-1.0823,-0.4221,-0.933,-0.7517,14.17,22.04,-23.24,327.1,-15.99,-2.28,2,51.818,19.519304,-96.91517,,,164.51613,0 / 10,86.4,90,4.115,4325,2014-11-08 13:52:59:385
2.6085,2.3236,10.3645,1.4667,1.8111,9.5257,0.5672,-0.6618,0.9549,-0.1357,0.3508,0.2006,-4.29,31.54,-27.89,359.52,-10.64,-8.75,2,53.792,19.519304,-96.91517,,,164.51613,0 / 12,86.4,90,4.115,4862,2014-11-08 13:52:59:922
1.7849,1.1696,9.3709,2.2843,1.8983,9.3461,-0.0925,-0.9554,-0.1192,-0.0751,0.032,0.5277,-9.15,26.84,-30.62,2.69,-13.31,-13.38,2,73.772,19.519304,-96.91517,,,164.51613,0 / 12,86.4,90,4.115,5380,2014-11-08 13:53:00:440
2.4924,0.6991,8.3438,2.1315,1.1446,9.5035,0.4376,0.4619,-1.913,0.3489,0.3123,0.9381,5.68,20.17,-31.41,331.46,-6.7,-12.64,2,70.158,19.519304,-96.91517,,,164.51613,0 / 13,86.4,90,4.115,5909,2014-11-08 13:53:00:969
1.5981,-1.3946,13.7906,1.9098,1.0652,9.5597,0.2917,-1.8433,1.778,-0.0551,0.4675,0.6156,10.36,9.45,-31,309.51,-7.03,-9.76,2,55.508,19.519304,-96.91517,,,164.51613,0 / 13,86.4,90,4.115,6449,2014-11-08 13:53:01:509
2.6097,1.1887,10.1382,2.0128,0.842,9.5609,0.5969,0.3467,0.5774,0.2469,0.6797,-0.001,7.83,1.2,-30.88,283.68,-4.93,-11.89,2,73.589,19.519304,-96.91517,,,164.51613,0 / 13,86.4,90,4.115,6979,2014-11-08 13:53:02:039
1.6963,2.4636,9.3948,1.6159,1.1575,9.6031,2.2468,6.2028,2.6196,-0.0722,-0.1037,-0.0349,8.58,-0.32,-30.29,276.31,-7.42,-10.86,2,73.875,19.519304,-96.91517,,,164.51613,0 / 13,86.4,90,4.115,7510,2014-11-08 13:53:02:570
1.6915,-0.832,7.0964,1.8875,2.5803,9.2709,0.0053,-5.2086,-2.327,-0.285,-0.1998,0.5533,8.96,-10.1,-25.43,263.59,-17.16,-9.93,2,71.971,19.519304,-96.91517,,,164.51613,0 / 13,86.4,90,4.115,8059,2014-11-08 13:53:03:119
2.0051,-0.3208,10.3848,2.1737,-0.8035,9.5289,-0.1686,0.4827,0.856,0.2191,0.1752,0.3086,5.08,8.41,-32.1,294.67,4.7,-12.85,2,73.083,19.519863,-96.91555,4375.81,0.67,32.258064,0 / 13,86.4,90,4.115,8601,2014-11-08 13:53:03:661
3.6583,-0.4106,8.3354,2.3642,-0.4856,9.505,1.2941,0.075,-1.1696,-0.1732,-0.1325,-0.587,3.65,5.6,-31,291.82,2.84,-13.97,2,72.274,19.519863,-96.91555,4375.81,0.67,32.258064,0 / 13,86.4,90,4.115,9128,2014-11-08 13:53:04:188
3.7338,0.328,8.2133,2.3199,-0.3163,9.523,1.4138,0.6443,-1.3097,0.3508,-0.3738,-0.387,3.58,7.87,-28.35,304.21,1.85,-13.69,2,63.613,19.519863,-96.91555,4375.81,0.67,32.258064,13 / 13,86.4,90,4.115,9637,2014-11-08 13:53:04:697
4.033,0.4788,10.234,3.9296,0.2472,8.9815,-1.1814,1.8189,-0.3508,-0.2289,0.4392,0.0349,-5.72,1.16,-26.63,299.44,-7.15,-18.77,2,66.854,19.519863,-96.91555,4375.81,0.67,32.258064,13 / 13,86.4,90,4.115,10149,2014-11-08 13:53:05:209
2.727,1.1648,9.0094,2.1583,1.1943,9.4914,0.5687,-0.0295,-0.482,0.201,-0.4899,-0.2154,2.9,-0.56,-22.73,295.47,-2.81,-15.49,2,58.418,19.519863,-96.91555,4375.81,0.67,32.258064,13 / 13,86.4,90,4.115,10678,2014-11-08 13:53:05:738
-0.2682,2.4181,8.3318,0.6985,1.3315,9.6907,-2.0883,0.9286,-1.2535,-0.9525,-0.9613,-0.1691,13.06,0.47,-16.6,286.42,-12.99,0.07,2,57.878,19.519863,-96.91555,4375.81,0.67,32.258064,13 / 13,86.4,90,4.115,11192,2014-11-08 13:53:06:252
2.1129,2.1428,7.5154,2.7273,0.9571,9.371,-0.0675,-1.2131,0.8623,-0.0605,-1.4971,-1.3616,5.53,8.96,-21.74,312.35,-5.6,-16.23,2,56.68,19.519863,-96.91555,4375.81,0.67,32.258064,13 / 13,86.4,90,4.115,11717,2014-11-08 13:53:06:777
3.7146,-0.8799,12.2404,2.9213,0.349,9.3549,-0.0614,-3.0015,3.8313,-1.1218,0.6705,0.6241,-3.05,21.16,-20.33,351.87,-2.04,-17.34,2,58.789,19.519863,-96.91555,4375.81,0.67,32.258064,13 / 13,86.4,90,4.115,12222,2014-11-08 13:53:07:282
3.7098,1.6484,13.1525,3.141,1.1259,9.2215,1.1786,-1.1127,2.6813,0.103,-0.4331,0.7732,-1.95,16.44,-21.2,346.48,-2.98,-11.02,2,56.666,19.519863,-96.91555,4375.81,0.67,32.258064,13 / 13,86.4,90,4.115,12746,2014-11-08 13:53:07:806
4.2665,-0.7865,12.1183,3.3727,0.9282,9.1615,0.8938,-1.7147,2.9567,-0.3469,0.1581,0.1779,-5.15,13.34,-20.75,350.29,-5.43,-20.21,2,57.6,19.519863,-96.91555,4375.81,0.67,32.258064,13 / 13,86.4,90,4.115,13568,2014-11-08 13:53:08:628
2.4505,0.6883,5.4588,3.1147,-0.0327,9.2988,-0.6642,0.721,-3.84,0.2864,0.2464,-0.7214,-0.47,17.13,-17.32,341.02,2.3,-19.31,2,56.028,19.519863,-96.91555,4375.81,0.67,32.258064,13 / 13,86.4,90,4.115,14108,2014-11-08 13:53:09:168
1.5407,0.0395,7.5346,2.8807,-0.8372,9.3365,-1.3644,1.8039,-2.4558,-0.0991,0.091,-0.4953,-1.46,22.81,-13.98,351.7,4.9,-17.15,2,56.452,19.519863,-96.91555,4375.81,0.67,32.258064,13 / 13,86.4,90,4.115,14622,2014-11-08 13:53:09:682
3.5255,2.8168,7.774,3.599,0.6693,9.0978,-0.0736,2.1474,-1.3238,0.2249,0.9274,-0.5751,-4.98,20.62,-15.44,357.04,-7.18,-14.61,2,56.61,19.519863,-96.91555,4375.81,0.67,32.258064,13 / 13,86.4,90,4.115,15122,2014-11-08 13:53:10:182
3.6332,0.0587,9.0214,2.8253,1.039,9.3332,0.8079,-0.9803,-0.3118,-0.9432,-0.0566,-0.312,-10.81,22.28,-13.92,15.21,-8.14,-16.55,2,54.381,19.519863,-96.91555,4375.81,0.67,32.258064,nov-13,86.4,90,4.115,15624,2014-11-08 13:53:10:684
3.9217,-0.4106,11.4694,4.2565,0.5785,8.8158,-0.3348,-0.9891,2.6537,-0.8905,0.12,-0.2386,-18.48,17.93,-1.33,40.48,-3.38,-25.77,2,56.285,19.519863,-96.91555,4375.81,0.67,32.258064,nov-13,86.4,90,4.115,16161,2014-11-08 13:53:11:221
3.8223,1.1588,9.2524,3.8793,0.4461,8.9957,-0.0569,0.7127,0.2567,0.0278,0.4894,0.143,-21.7,17.34,1.67,46.85,-3.22,-23.76,2,52.346,19.519863,-96.91555,4375.81,0.67,32.258064,nov-13,86.4,90,4.115,16705,2014-11-08 13:53:11:765
2.8515,1.7394,9.4068,3.891,0.5223,8.9865,-1.8943,0.4845,-0.3195,0.0551,-0.1886,0.2869,-20.2,19.23,0.75,44.46,-1.97,-22.49,2,52.032,19.519863,-96.91555,4375.81,0.67,32.258064,nov-13,86.4,90,4.115,17212,2014-11-08 13:53:12:272
6.6068,0.7207,10.2939,3.2433,0.82,9.2184,3.3635,-0.0994,1.0755,-0.4802,0.7163,2.0836,-17.67,17.45,-2.9,40.44,-8.68,-22.09,2,53.911,19.519863,-96.91555,4375.81,0.67,32.258064,nov-14,86.4,90,4.115,17741,2014-11-08 13:53:12:801
3.0347,0.4537,11.3042,2.4105,1.0767,9.4446,0.6241,-0.623,1.8596,0.2152,0.4484,1.244,-0.11,16.62,-6.9,354.64,-7.64,-13.75,2,53.749,19.519863,-96.91555,4375.81,0.67,32.258064,nov-14,86.4,90,4.115,18308,2014-11-08 13:53:13:368
1.7274,0.7159,13.3345,1.7562,1.3248,9.5567,-0.0288,-0.6089,3.7778,0.9501,0.3823,-0.1086,4.82,17.24,-4.99,340.76,-3.98,-13.18,2,53.317,19.519863,-96.91555,4375.81,0.67,32.258064,dic-14,86.4,90,4.115,18810,2014-11-08 13:53:13:870
2.8683,3.0909,8.9735,2.2819,2.2662,9.2643,0.0721,0.0401,-2.1471,0.8671,0.3804,0.2955,7.72,10.42,-7.12,319.64,-12.71,-11.83,2,56.025,19.520208,-96.91536,,,257.5645,nov-14,86.4,90,4.115,19338,2014-11-08 13:53:14:398
2.6779,2.3607,7.7656,3.1093,2.5033,8.9575,-0.4314,-0.1426,-1.1919,-0.201,-0.9025,-0.4218,7.44,9.82,-7.4,321.12,-9.29,-15.26,2,52.612,19.520208,-96.91536,,,257.5645,nov-14,86.4,90,4.115,19868,2014-11-08 13:53:14:928
2.5055,1.4856,6.8738,2.7724,2.2631,9.1303,-0.2669,-0.7775,-2.2565,0.6568,0.5033,0.3364,9.2,12.93,-5.88,322.24,-13.34,-16.89,2,55.04,19.520208,-96.91536,,,257.5645,dic-14,86.4,90,4.115,20443,2014-11-08 13:53:15:503
2.1225,1.8387,6.6667,3.2137,1.6174,9.1228,-1.0913,0.2213,-2.4562,-0.4758,-0.1862,-1.3175,7.7,20.43,-7.16,334.19,-9.22,-19.2,2,55.722,19.520208,-96.91536,,,257.5645,dic-14,86.7,90,4.11,20970,2014-11-08 13:53:16:030
2.8156,2.909,9.5612,1.8691,2.9862,9.152,0.9465,-0.0773,0.4092,-0.9125,0.3547,1.4424,-13.7,21.16,-10.44,17.04,-16.09,-11.61,2,55.729,19.520208,-96.91536,,,257.5645,dic-14,86.7,90,4.11,21516,2014-11-08 13:53:16:576
2.8826,0.425,7.2233,2.2231,1.0033,9.4985,0.6595,-0.5783,-2.2752,1.5054,-0.3882,-1.1145,-2.23,28.52,-6.88,0.68,-5.87,-13.17,2,51.852,19.520208,-96.91536,,,257.5645,dic-14,86.7,90,4.11,22131,2014-11-08 13:53:17:191
1.9453,-0.8715,8.3606,1.4148,1.8721,9.5218,0.1995,-3.1374,-1.4804,0.0634,-0.9864,-1.5629,-23.07,18.52,-8.06,47.82,-9.87,-3.63,2,52.111,19.520208,-96.91536,,,257.5645,12-dic,86.7,90,4.11,22726,2014-11-08 13:53:17:786
2.788,0.5782,9.1578,2.8595,0.672,9.3564,-0.0715,-0.0938,-0.1986,0.3367,-0.2945,0.0805,-36.43,8.79,3.34,77.01,-3.36,-19.43,2,55.589,19.520208,-96.91536,,,257.5645,12-dic,86.7,90,4.11,23303,2014-11-08 13:53:18:363
3.2537,0.753,8.9878,2.8743,0.7835,9.3432,0.2788,0.0784,-0.5217,-0.0215,0.3094,-0.1166,-35.59,12.07,2.46,70.12,-4.58,-17.1,2,57.893,19.520208,-96.91536,,,257.5645,13 / 13,86.7,90,4.11,23869,2014-11-08 13:53:18:929
1.8675,-0.0934,8.922,2.6841,0.4237,9.4227,0.2608,-0.5279,0.8688,0.3133,-0.2396,-0.316,-37.14,8.43,4.27,77.3,-2.48,-15.9,2,56.44,19.520208,-96.91536,,,257.5645,dic-13,86.7,90,4.11,24387,2014-11-08 13:53:19:447
3.1472,0.5997,9.244,2.5877,0.5876,9.4408,0.5595,0.0122,-0.1968,0.1376,0.0405,-0.1188,-36.23,9.35,3.07,75.09,-3.96,-15.59,2,67.476,19.520208,-96.91536,,,257.5645,dic-13,86.7,90,4.11,24929,2014-11-08 13:53:19:989
2.5187,0.316,8.6383,2.4924,0.1837,9.4829,-0.0153,-0.128,-0.5584,-0.2625,0.2274,-0.2049,-37.27,7.76,3.71,77.08,-3.23,-13.38,2,59.334,19.520208,-96.91536,,,257.5645,dic-13,86.7,90,4.11,25471,2014-11-08 13:53:20:531
1.4641,-0.7626,9.4344,2.2169,-0.0261,9.5527,-0.7529,-0.7364,-0.1184,0.4665,0.1013,0.1361,-36.83,7.12,2.57,79.45,1.65,-13.5,2,70.011,19.520208,-96.91536,,,257.5645,dic-13,86.7,90,4.11,26015,2014-11-08 13:53:21:075
2.6133,-1.828,9.5181,4.1761,-0.5192,8.8578,-1.5628,-1.3087,0.6603,-0.1459,-0.75,0.0917,-36.79,12.74,7.14,71.1,3.04,-25.24,2,69.601,19.520208,-96.91536,,,257.5645,dic-13,86.7,90,4.11,26528,2014-11-08 13:53:21:588
3.2825,1.3515,9.1973,2.4319,0.6764,9.4762,0.8506,0.6752,-0.2789,0.852,0.9727,1.5722,-26.91,22.28,-1.07,48.33,-4,-17.93,2,70.109,19.520208,-96.91536,,,257.5645,dic-13,86.7,90,4.11,27036,2014-11-08 13:53:22:096
3.3076,1.5897,8.6407,2.5382,1.4186,9.3657,0.7694,0.1711,-0.725,0.1581,0.1605,0.1849,-9.22,25.77,-8.77,15.79,-7.42,-14.56,2,60.751,19.520208,-96.91536,,,257.5645,dic-13,86.7,90,4.11,27550,2014-11-08 13:53:22:610
1.7933,0.3783,9.8462,2.5648,1.2574,9.3814,1.0923,-1.7949,0.3007,-0.5045,-0.8081,-1.591,-18.53,24.55,-6.13,32.61,-7.37,-15.29,2,73.921,19.520208,-96.91536,,,257.5645,dic-13,86.7,90,4.11,28062,2014-11-08 13:53:23:122
3.3339,0.7853,9.4032,2.6451,0.5906,9.4247,0.6888,0.1947,-0.0215,0.1918,0.2496,0.8149,-29.01,20.2,-0.34,53.18,-3.57,-18.85,2,66.495,19.520208,-96.91536,,,257.5645,13 / 14,86.7,90,4.11,28620,2014-11-08 13:53:23:680
3.2429,0.9637,9.104,3.0614,0.8592,9.2768,0.1815,0.1045,-0.1729,0.0395,-0.3657,-0.0024,-22.55,24.42,-3.73,40.42,-5.02,-15.44,2,73.103,19.520208,-96.91536,,,257.5645,13 / 14,86.7,90,4.11,29121,2014-11-08 13:53:24:181
3.5518,1.2318,9.3601,3.7512,0.7802,9.0272,-0.1994,0.4516,0.333,-0.1791,-0.0346,-0.3931,-30.25,22.32,3.3,48.46,-4.27,-22.52,2,58.7,19.520208,-96.91536,,,257.5645,13 / 14,86.7,90,4.11,29662,2014-11-08 13:53:24:722
3.3806,0.8464,8.8107,1.6762,1.2651,9.5792,1.7044,-0.4187,-0.7685,0.0712,-0.4899,-0.7644,-29.95,16.17,-3.56,59.44,-7.41,-9.93,2,67.962,19.520208,-96.91536,,,257.5645,13 / 14,86.7,90,4.11,30162,2014-11-08 13:53:25:222
2.7892,2.6851,9.8067,2.4501,1.4465,9.3848,0.3391,1.2386,0.4218,0.1034,0.1581,0.0905,-34.6,10.81,1.01,70.53,-8.07,-15.1,2,72.128,19.520208,-96.91536,,,257.5645,13 / 14,86.7,90,4.11,30782,2014-11-08 13:53:25:842
3.389,2.4421,9.2117,2.8267,1.2692,9.3043,0.5623,1.1729,-0.0926,-0.1976,0.2108,-0.0188,-33.26,16.49,0.04,62.3,-11.82,-18.68,2,60.589,19.520208,-96.91536,,,257.5645,13 / 15,86.7,90,4.11,31347,2014-11-08 13:53:26:407
2.5965,0.1053,11.8657,2.043,1.0973,9.5285,0.5535,-0.9919,2.3372,0.4182,0.6024,-0.021,-32.7,17.88,-1.12,59.65,-6.42,-12.1,2,66.696,19.520208,-96.91536,,,257.5645,13 / 15,86.7,90,4.11,31928,2014-11-08 13:53:26:988
1.7633,2.0554,10.1598,2.2863,0.9736,9.4866,-0.523,1.0819,0.6732,0.2464,0.3977,0.3152,-34.35,14.96,-0.41,63.45,-7.61,-11.2,2,56.863,19.519855,-96.91558,4364.19,1.58,16.129032,14 / 15,86.7,90,4.11,32453,2014-11-08 13:53:27:513
2.478,3.6547,10.7631,1.2777,1.7246,9.5689,1.2003,1.9301,1.1942,0.3425,0.9998,0.2855,-20.33,18.44,-17.34,39.73,-10.13,-7.61,2,53.346,19.519855,-96.91558,4364.19,1.58,16.129032,14 / 15,86.7,90,4.11,33071,2014-11-08 13:53:28:131
-0.5842,4.9811,7.7931,-0.8791,5.5395,8.0444,0.295,-0.5583,-0.2512,0.3972,-0.1225,-0.8756,-22.06,-6.97,-22.19,76.08,-29.52,-2.49,2,52.906,19.519855,-96.91558,4364.19,1.58,16.129032,15 / 15,86.7,90,4.11,33609,2014-11-08 13:53:28:669
0.7111,7.5585,6.2944,0.4099,7.0203,6.8351,0.3012,0.5382,-0.5407,-0.2454,-0.7085,-0.0198,-21.7,-11.11,-21.44,76.08,-29.52,-2.49,2,56.914,19.519855,-96.91558,4364.19,1.58,16.129032,15 / 15,86.7,90,4.11,34345,2014-11-08 13:53:29:405
-0.1173,5.193,8.1954,-0.584,4.4024,8.7435,0.4667,0.7907,-0.5481,-0.0917,0.2074,-0.2806,-21.7,-11.11,-21.44,76.08,-29.52,-2.49,2,59.956,19.519855,-96.915565,4364.84,2.02,16.129032,14 / 15,86.7,90,4.11,34845,2014-11-08 13:53:29:905
-2.8467,4.0366,5.624,-3.029,5.3869,7.6143,0.1823,-1.3503,-1.9903,0.6534,0.6824,0.2357,-21.7,-11.11,-21.44,76.08,-29.52,-2.49,2,66.813,19.519855,-96.915565,4364.84,2.02,16.129032,15 / 15,86.7,90,4.11,35345,2014-11-08 13:53:30:405
-2.8671,3.8978,9.232,-3.5247,3.3268,8.5252,0.6576,0.5709,0.7068,-0.121,0.1479,-0.2245,-21.7,-11.11,-21.44,76.08,-29.52,-2.49,2,67.944,19.519855,-96.915565,4364.84,2.02,16.129032,15 / 15,86.7,90,4.11,35846,2014-11-08 13:53:30:906
-1.968,4.6017,6.8486,-2.1549,5.0264,8.1402,0.1869,-0.4247,-1.2916,0.4275,0.0776,-1.003,-21.7,-11.11,-21.44,76.08,-29.52,-2.49,2,52.41,19.519844,-96.91556,4365.48,2.02,16.129032,15 / 15,86.7,90,4.11,36347,2014-11-08 13:53:31:407
-0.1413,3.0059,8.2181,0.8617,3.5905,9.0849,-1.003,-0.5846,-0.8668,0.5914,-0.5411,0.4789,-21.7,-11.11,-21.44,76.08,-29.52,-2.49,2,51.379,19.519844,-96.91556,4365.48,2.02,16.129032,15 / 15,86.7,90,4.11,36847,2014-11-08 13:53:31:907
-0.0599,1.148,10.6937,0.6446,2.0553,9.5672,-0.7045,-0.9073,1.1265,0.2108,0.1459,1.9833,-21.7,-11.11,-21.44,76.08,-29.52,-2.49,2,51.624,19.51984,-96.91555,4366.45,2.02,16.129032,15 / 15,86.7,90,4.11,37347,2014-11-08 13:53:32:407
-1.8459,1.9166,9.8629,-1.264,1.2705,9.6415,-0.5819,0.6461,0.2214,-0.4626,-0.2852,0.8107,-21.7,-11.11,-21.44,76.08,-29.52,-2.49,2,71.284,19.51984,-96.91555,4366.45,2.02,16.129032,15 / 15,86.7,90,4.11,37847,2014-11-08 13:53:32:907
0.3496,-0.4705,8.8933,-2.8556,-0.0043,9.3817,3.2052,-0.4661,-0.4884,0.2674,0.0632,-0.6119,-21.7,-11.11,-21.44,76.08,-29.52,-2.49,2,59.244,19.51984,-96.91555,4366.45,2.02,16.129032,14 / 15,86.7,90,4.11,38347,2014-11-08 13:53:33:407
-2.1105,0.8068,11.0864,-2.9287,1.418,9.2511,0.8182,-0.6112,1.8353,0.387,-0.7153,-0.7188,-21.7,-11.11,-21.44,76.08,-29.52,-2.49,2,52.437,19.51984,-96.91555,4366.45,2.02,16.129032,14 / 15,86.7,90,4.11,38847,2014-11-08 13:53:33:907
-3.4117,4.8243,7.2245,-3.697,3.2537,8.4803,0.2853,1.5706,-1.2558,0.2859,-1.318,-1.4097,-21.7,-11.11,-21.44,76.08,-29.52,-2.49,2,53.216,19.520048,-96.91539,,,169.35483,14 / 15,86.7,90,4.11,39347,2014-11-08 13:53:34:407
-3.1795,3.1891,6.9168,-2.3328,2.216,9.2638,-1.1376,0.5948,-0.7739,-0.0825,-0.2245,-0.0227,-21.7,-11.11,-21.44,76.08,-29.52,-2.49,2,53.958,19.519844,-96.91554,4368.06,1.35,16.129032,14 / 15,86.7,90,4.11,39847,2014-11-08 13:53:34:907
-1.148,0.3687,6.5924,-1.2722,2.3069,9.4462,0.226,-1.8532,-0.8438,-1.459,-0.5041,0.2476,-21.7,-11.11,-21.44,76.08,-29.52,-2.49,2,51.445,19.519842,-96.915535,4368.06,2.7,16.129032,15 / 15,86.7,90,4.11,40347,2014-11-08 13:53:35:407
-0.9888,-1.555,7.9655,-0.5754,-0.7013,9.7646,0.7693,0.4151,-2.7939,0.1835,0.2564,-1.165,-21.7,-11.11,-21.44,76.08,-29.52,-2.49,2,67.193,19.519842,-96.915535,4368.06,2.7,16.129032,15 / 15,86.7,90,4.11,40848,2014-11-08 13:53:35:908
-1.397,-5.5893,12.5815,-1.0169,-1.8541,9.5759,-0.1395,-2.8146,0.5336,0.5114,0.2855,0.8339,-21.7,-11.11,-21.44,76.08,-29.52,-2.49,2,75.578,19.519842,-96.91553,4368.39,2.7,16.129032,14 / 15,86.7,90,4.11,41348,2014-11-08 13:53:36:408
-1.3946,-1.3731,13.3405,-1.9918,0.3253,9.5967,-0.1007,0.9041,1.6764,-1.3224,-0.8073,-0.5572,-21.7,-11.11,-21.44,76.08,-29.52,-2.49,2,71.013,19.519842,-96.91553,4368.39,2.7,16.129032,14 / 15,86.7,90,4.11,41848,2014-11-08 13:53:36:908
-0.4286,0.6225,11.2324,-0.2475,-0.0883,9.8031,-0.4193,-0.4252,1.1192,0.6885,0.4601,0.1332,-21.7,-11.11,-21.44,76.08,-29.52,-2.49,2,71.837,19.519844,-96.91552,4368.71,2.47,16.129032,14 / 15,86.7,90,4.11,42348,2014-11-08 13:53:37:408
-1.6592,0.8595,8.7759,-1.2582,0.2953,9.7211,0.2143,-0.1827,-1.4911,0.4733,0.6636,0.0054,-21.7,-11.11,-21.44,76.08,-29.52,-2.49,2,55.002,19.519844,-96.91552,4368.71,2.47,16.129032,14 / 15,86.7,90,4.11,42849,2014-11-08 13:53:37:909
-1.4904,1.2725,7.5753,-1.6978,0.3996,9.6503,-0.4067,0.8334,-1.2514,-0.2045,0.0761,-0.3826,-21.7,-11.11,-21.44,76.08,-29.52,-2.49,2,53.724,19.519844,-96.91552,4368.71,2.47,16.129032,14 / 15,86.7,90,4.11,43349,2014-11-08 13:53:38:409
-2.0375,-0.4298,8.6191,-2.2222,0.6314,9.5307,0.2972,-1.9338,2.8462,1.1355,0.5565,0.1317,-21.7,-11.11,-21.44,76.08,-29.52,-2.49,2,55.172,19.519844,-96.91552,4368.71,2.47,16.129032,14 / 15,86.7,90,4.11,43849,2014-11-08 13:53:38:909
-3.486,-0.0215,6.365,-3.2513,0.6944,9.2259,0.1568,-0.4131,-0.4488,0.2874,-0.2125,-0.2359,-21.7,-11.11,-21.44,76.08,-29.52,-2.49,2,55.632,19.519842,-96.91551,4370.32,2.25,16.129032,14 / 15,86.7,90,4.11,44349,2014-11-08 13:53:39:409
-2.2589,0.2598,10.8266,-2.3,0.0453,9.533,-0.7882,1.2704,1.2516,0.4597,0.0063,0.9379,-21.7,-11.11,-21.44,76.08,-29.52,-2.49,2,54.125,19.519842,-96.91551,4370.32,2.25,16.129032,14 / 15,86.7,90,4.11,44849,2014-11-08 13:53:39:909
-1.081,0.8691,8.825,-2.2463,0.9006,9.5034,1.1521,1.2027,-0.2653,-0.1381,0.3328,0.2957,-21.7,-11.11,-21.44,76.08,-29.52,-2.49,2,52.698,19.51984,-96.915504,4370.97,2.25,16.129032,14 / 15,86.7,90,4.11,45352,2014-11-08 13:53:40:412
-1.9357,-0.4633,9.645,-2.1598,-0.0116,9.5659,-0.4272,0.64,-0.2213,-1.1428,-0.2193,-0.8286,-21.7,-11.11,-21.44,76.08,-29.52,-2.49,2,51.989,19.51984,-96.915504,4370.97,2.25,16.129032,14 / 15,86.7,90,4.11,45853,2014-11-08 13:53:40:913
-2.7653,-1.2605,11.309,-1.028,0.816,9.7184,-0.4073,-0.5957,-0.9485,0.2328,-0.0917,0.6519,-21.7,-11.11,-21.44,76.08,-29.52,-2.49,2,69.625,19.51984,-96.915504,4370.97,2.25,16.129032,13 / 15,86.7,90,4.11,46353,2014-11-08 13:53:41:413
-1.2725,0.504,12.4917,-1.5915,0.8467,9.6395,0.0568,0.5563,1.1966,-0.5509,0.1247,-0.4299,-21.7,-11.11,-21.44,76.08,-29.52,-2.49,2,73.888,19.51984,-96.915504,4370.97,2.25,16.129032,13 / 15,86.7,90,4.11,46853,2014-11-08 13:53:41:913
-1.4928,1.7322,10.5022,-1.7099,0.381,9.6489,0.2171,1.3512,0.8533,0.062,-0.0917,-0.1361,-21.7,-11.11,-21.44,76.08,-29.52,-2.49,2,52.111,19.519833,-96.9155,4371.29,2.25,16.129032,15 / 15,86.7,90,4.11,47353,2014-11-08 13:53:42:413
-0.5363,0.5064,9.8797,-1.0717,1.7504,9.5895,0.5354,-1.244,0.2902,0.1566,0.3826,-0.2237,-21.7,-11.11,-21.44,76.08,-29.52,-2.49,2,50.419,19.519833,-96.9155,4371.29,2.25,16.129032,15 / 15,86.7,90,4.11,47854,2014-11-08 13:53:42:914
0.9266,0.3591,7.5178,-1.634,1.9795,9.4648,2.5606,-1.6203,-1.947,0.3264,0.0132,-0.7541,-21.7,-11.11,-21.44,76.08,-29.52,-2.49,2,51.727,19.519821,-96.915504,4370.32,2.7,16.129032,15 / 15,86.7,90,4.11,48354,2014-11-08 13:53:43:414
0.4489,1.9585,9.2512,-1.3557,1.1922,9.639,1.8046,0.7662,-0.3878,0.0273,0.1508,-0.01,-21.7,-11.11,-21.44,76.08,-29.52,-2.49,2,51.735,19.519821,-96.915504,4370.32,2.7,16.129032,15 / 15,86.7,90,4.11,48854,2014-11-08 13:53:43:914
-0.984,2.3846,8.4623,-1.2164,2.0785,9.5063,0.2324,0.3061,-1.044,-0.5065,-0.2947,-0.324,-21.7,-11.11,-21.44,76.08,-29.52,-2.49,2,58.041,19.519815,-96.915504,4370,2.47,16.129032,14 / 15,86.7,90,4.11,49354,2014-11-08 13:53:44:414
-0.1173,1.2821,7.9847,-1.0352,2.085,9.5264,0.0883,-0.8388,-1.5249,0.8822,0.4148,0.0676,-21.7,-11.11,-21.44,76.08,-29.52,-2.49,2,56.348,19.519815,-96.915504,4370,2.47,16.129032,14 / 15,86.7,90,4.11,49854,2014-11-08 13:53:44:914
-0.2909,-0.4501,10.8302,-1.4717,0.3977,9.6874,1.1808,-0.8478,1.1427,-0.6163,-0.0017,0.253,-21.7,-11.11,-21.44,76.08,-29.52,-2.49,2,56.551,19.519806,-96.915504,4368.39,2.47,16.129032,15 / 15,86.7,90,4.11,50356,2014-11-08 13:53:45:416
-2.8359,0.2071,9.4966,-1.0649,0.8089,9.715,-1.7711,-0.6018,-0.2184,-0.08,-0.4511,-0.8486,-21.7,-11.11,-21.44,76.08,-29.52,-2.49,2,60.724,19.519806,-96.915504,4368.39,2.47,16.129032,15 / 15,86.4,90,4.132,50856,2014-11-08 13:53:45:916
-2.1093,0.7913,10.6051,-1.6325,1.7432,9.5114,-0.4768,-0.9519,1.0937,-0.0844,0.0193,-0.1898,-21.7,-11.11,-21.44,76.08,-29.52,-2.49,2,59.748,19.519794,-96.915504,4368.39,1.35,16.129032,15 / 15,86.4,90,4.132,51356,2014-11-08 13:53:46:416
-1.1001,2.2374,9.7241,-1.8096,1.9358,9.4418,0.7095,0.3016,0.2822,0.0537,0.2698,1.3385,-21.7,-11.11,-21.44,76.08,-29.52,-2.49,2,69.661,19.519794,-96.915504,4368.39,1.35,16.129032,15 / 15,86.4,90,4.132,51856,2014-11-08 13:53:46:916
-3.4644,3.8834,8.3761,-1.6249,2.4118,9.3655,-1.8395,1.4716,-0.9894,-0.1927,0.14,0.2593,-21.7,-11.11,-21.44,76.08,-29.52,-2.49,2,69.101,19.519785,-96.915504,4368.71,1.13,16.129032,14 / 15,86.4,90,4.132,52358,2014-11-08 13:53:47:418
-3.7529,2.9221,8.2229,-2.6969,3.8812,8.5926,-1.056,-0.9591,-0.3697,-0.1117,1.2616,0.5536,-21.7,-11.11,-21.44,76.08,-29.52,-2.49,2,68.279,19.519785,-96.915504,4368.71,1.13,16.129032,14 / 15,86.4,90,4.132,52858,2014-11-08 13:53:47:918
-2.2817,3.2956,8.752,-2.6262,4.0557,8.5337,0.42,0.0036,1.4896,-0.711,0.3391,0.9532,-21.7,-11.11,-21.44,76.08,-29.52,-2.49,2,66.628,19.519785,-96.915504,4368.71,1.13,16.129032,14 / 15,86.4,90,4.132,53358,2014-11-08 13:53:48:418
-1.1528,2.6372,9.5541,-2.3489,2.6083,9.157,1.5636,0.3042,1.0363,-0.1581,0.162,-0.2637,-21.7,-11.11,-21.44,76.08,-29.52,-2.49,2,70.053,19.519785,-96.915504,4368.71,1.13,16.129032,14 / 15,86.4,90,4.132,53858,2014-11-08 13:53:48:918
-2.4672,3.1615,7.6172,-2.344,3.042,9.0234,-0.1723,-0.6418,0.9281,-0.3752,-0.5602,-0.0776,-21.7,-11.11,-21.44,76.08,-29.52,-2.49,2,70.145,19.519785,-96.915504,4368.71,1.13,16.129032,15 / 15,86.4,90,4.132,54359,2014-11-08 13:53:49:419
-2.3224,2.0614,9.9084,-2.9066,2.9055,8.9039,-1.1492,-0.9794,-0.3219,-0.4333,0.7217,0.264,-21.7,-11.11,-21.44,76.08,-29.52,-2.49,2,59.239,19.519785,-96.915504,4368.71,1.13,16.129032,15 / 15,86.4,90,4.132,54859,2014-11-08 13:53:49:919
-4.4724,1.7753,9.1482,-2.6859,2.5253,9.0873,-0.3332,-0.2987,0.1771,-0.7041,0.741,0.5063,-21.7,-11.11,-21.44,76.08,-29.52,-2.49,2,65.412,19.519785,-96.915504,4368.71,1.13,16.129032,14 / 15,86.4,90,4.132,55360,2014-11-08 13:53:50:420
-1.7645,2.1141,9.6079,-2.3433,2.2258,9.2588,0.5177,-0.6109,1.2913,-0.0737,0.3125,0.1457,-21.7,-11.11,-21.44,76.08,-29.52,-2.49,2,55.368,19.519785,-96.915504,4368.71,1.13,16.129032,14 / 15,86.4,90,4.132,55861,2014-11-08 13:53:50:921
-0.7207,2.3403,10.3525,-2.8073,2.8455,8.955,2.842,0.3975,-0.1121,0.3167,-0.0812,0.093,-21.7,-11.11,-21.44,76.08,-29.52,-2.49,2,68.206,19.519785,-96.915504,4368.71,1.13,16.129032,13 / 15,86.4,90,4.132,56361,2014-11-08 13:53:51:421
-3.6595,2.1392,8.3713,-1.8765,2.7553,9.2227,-1.382,-0.2737,-0.5652,-0.0732,0.1166,0.1776,-21.7,-11.11,-21.44,76.08,-29.52,-2.49,2,69.689,19.519785,-96.915504,4368.71,1.13,16.129032,13 / 15,86.4,90,4.132,56861,2014-11-08 13:53:51:921
-0.2586,0.5626,10.4208,-1.8339,1.5921,9.5012,0.3782,-0.4525,2.8457,-0.2654,0.5385,-0.2725,-21.7,-11.11,-21.44,76.08,-29.52,-2.49,2,73.147,19.519785,-96.915504,4368.71,1.13,16.129032,dic-15,86.4,90,4.132,57363,2014-11-08 13:53:52:423
-2.8311,1.8328,9.2847,-2.3953,2.6191,9.1418,0.371,-0.1315,-0.3048,0.2035,0.191,0.3074,-21.7,-11.11,-21.44,76.08,-29.52,-2.49,2,73.806,19.519785,-96.915504,4368.71,1.13,16.129032,dic-15,86.4,90,4.132,57863,2014-11-08 13:53:52:923
-2.9209,3.3243,9.2751,-2.4479,2.6646,9.1147,0.1208,0.4407,-0.4082,-0.3465,0.2406,0.5341,-21.7,-11.11,-21.44,76.08,-29.52,-2.49,2,56.026,19.519785,-96.915504,4368.71,1.13,16.129032,dic-15,86.4,90,4.132,58363,2014-11-08 13:53:53:423
-2.5881,2.8228,6.5673,-1.8089,4.0745,8.7348,-1.0546,-0.9166,-1.9173,0.3357,-0.7468,0.4543,-21.7,-11.11,-21.44,76.08,-29.52,-2.49,2,67.291,19.519785,-96.915504,4368.71,1.13,16.129032,dic-15,86.4,90,4.132,58863,2014-11-08 13:53:53:923
-2.162,3.7206,8.3761,-1.8409,2.9791,9.16,0.408,0.1274,-0.7839,0.4894,0.0632,-0.2955,-21.7,-11.11,-21.44,76.08,-29.52,-2.49,2,53.316,19.519785,-96.915504,4368.71,1.13,16.129032,dic-14,86.4,90,4.132,59364,2014-11-08 13:53:54:424
-0.4286,2.6205,9.1183,-1.9946,3.2136,9.0479,1.2895,-0.6075,-0.1858,-0.0112,0.3821,0.4106,27.98,10.2,-24.59,311.49,-19.13,12.43,2,53.78,19.519785,-96.915504,4368.71,1.13,16.129032,dic-14,86.4,90,4.132,59864,2014-11-08 13:53:54:924
-3.0143,4.227,9.2285,-2.5642,3.5122,8.7897,-0.2215,-0.0634,-1.7544,-0.3889,-0.0737,0.3652,32.37,8.7,-19.98,306.36,-20.99,16.26,2,69.506,19.519785,-96.915504,4368.71,1.13,16.129032,dic-14,86.4,90,4.132,60365,2014-11-08 13:53:55:425
-1.2103,3.7697,7.7536,-1.6964,3.4421,9.0247,0.4143,-1.613,0.2541,-0.4445,-0.0056,-0.0678,34.28,2.17,-18.65,293.67,-23.16,14.06,2,64.27,19.519785,-96.915504,4368.71,1.13,16.129032,dic-14,86.4,90,4.132,60865,2014-11-08 13:53:55:925
-2.5881,4.0737,10.2149,-1.6936,3.499,9.0033,-0.7976,0.558,1.0236,0.3591,-0.5338,-0.557,30.81,7.48,-20.76,301.48,-20.5,11.74,2,60.408,19.519785,-96.915504,4368.71,1.13,16.129032,dic-14,86.4,90,4.132,61365,2014-11-08 13:53:56:425
0.504,5.5486,8.3797,-0.8117,4.3699,8.7416,0.9745,0.2509,-0.3009,0.6817,-0.1154,0.0317,25.22,5.6,-25.82,308.58,-26.46,5.3,2,70.317,19.519785,-96.915504,4368.71,1.13,16.129032,dic-14,86.4,90,4.132,61865,2014-11-08 13:53:56:925
0.0108,3.4105,9.2392,0.3326,3.5073,9.152,-0.1351,-0.9623,-0.0384,-1.0345,-0.4877,0.4753,25.99,4.27,-25.79,303.2,-28.26,2.3,2,66.502,19.519785,-96.915504,4368.71,1.13,16.129032,dic-13,86.4,90,4.132,62366,2014-11-08 13:53:57:426
-1.901,3.0742,9.3901,-1.9888,2.1603,9.3567,-1.0075,0.5858,-1.6366,-0.1488,-0.5646,-0.3218,33.19,11.3,-17.13,298.72,-12.73,12,2,69.797,19.519785,-96.915504,4368.71,1.13,16.129032,dic-13,86.4,90,4.132,62866,2014-11-08 13:53:57:926
-0.9469,1.0104,7.5369,-1.9228,1.8059,9.4452,-0.0967,-2.031,0.0682,-0.1962,0.2147,0.0742,29.65,16.3,-18.59,307.7,-10.34,8.79,2,74.587,19.519785,-96.915504,4368.71,1.13,16.129032,dic-13,86.4,90,4.132,63366,2014-11-08 13:53:58:426
-2.5977,1.8244,9.839,-1.9327,2.5738,9.2634,-0.2053,-1.6891,-0.1894,0.3479,-0.1674,0.7812,36.96,7.83,-14.39,295.75,-9.22,13.27,2,61.264,19.519785,-96.915504,4368.71,1.13,16.129032,dic-13,86.4,90,4.132,63866,2014-11-08 13:53:58:926
-0.5219,2.1033,8.0421,0.0604,1.8477,9.6308,-0.5823,0.2556,-1.5887,0.4099,-0.1747,0.0273,32.38,4.29,-21.51,284.04,-10.86,-0.36,2,65.746,19.519785,-96.915504,4368.71,1.13,16.129032,dic-13,86.4,90,4.132,64576,2014-11-08 13:53:59:636
-0.158,2.727,8.0098,-0.6828,3.8971,8.9731,0.5248,-1.1701,-0.9633,-0.2162,-0.1254,-0.2001,33.92,-2.16,-20.69,283.09,-23.42,4.35,2,71.251,19.519785,-96.915504,4368.71,1.13,16.129032,dic-13,86.4,90,4.132,65151,2014-11-08 13:54:00:211
-0.6907,2.739,8.442,0.4355,3.6929,9.0743,-0.6426,-0.2764,0.214,-0.1659,0.3069,0.0517,30.88,-5.51,-23.18,275.2,-21.98,-0.93,2,72.462,19.519815,-96.915535,4364.84,1.58,16.129032,dic-13,86.4,90,4.132,65689,2014-11-08 13:54:00:749
0.3687,5.3606,8.6886,0.467,4.5346,8.6827,-0.0983,0.826,0.0058,0.0181,0.0681,-0.4926,29.14,-5.68,-24.7,279.97,-27.42,-3.47,2,60.04,19.519815,-96.915535,4364.84,1.58,16.129032,dic-13,86.4,90,4.132,66236,2014-11-08 13:54:01:296
0.3232,4.9668,7.938,-0.2522,4.6564,8.627,0.5754,0.3104,-0.689,-0.6914,-0.1291,0.1496,30.51,-3.65,-23.24,284.48,-28.35,1.67,2,69.526,19.51982,-96.915535,4364.84,1.8,16.129032,dic-13,86.4,90,4.132,66824,2014-11-08 13:54:01:884
-1.3994,3.2585,8.6479,0.1576,3.6842,9.0869,-1.557,-0.4256,-0.4391,0.203,-0.0922,0.0095,31.56,-3.05,-22.47,281.48,-21.12,1.55,2,57.318,19.51982,-96.915535,4364.84,1.8,16.129032,dic-14,86.4,90,4.132,67364,2014-11-08 13:54:02:424
0.2179,4.2832,10.0293,0.6504,3.621,9.0904,-0.4325,0.6622,0.9389,-0.0454,-0.1105,-0.2989,28.67,-2.75,-24.66,280.94,-21.65,-3.05,2,66.095,19.51982,-96.915535,4364.84,1.8,16.129032,dic-14,86.4,90,4.132,67922,2014-11-08 13:54:02:982
1.0139,3.9277,8.418,0.3969,3.7198,9.0651,0.617,0.2079,-0.6471,0.0532,-0.0471,-0.0464,27.17,0.17,-25.32,287.83,-22.29,-2.51,2,59.155,19.519829,-96.91554,4364.52,1.8,16.129032,dic-14,86.4,90,4.132,68446,2014-11-08 13:54:03:506
0.3903,3.9588,9.2811,0.3376,4.5587,8.6761,0.0526,-0.5999,0.605,0.1269,-0.3016,0.3604,30.13,-4.44,-22.98,282.07,-27.7,-2.23,2,54.801,19.519829,-96.91554,4364.52,1.8,16.129032,dic-14,86.4,90,4.132,69050,2014-11-08 13:54:04:110
-1.8136,5.278,8.3139,-0.741,4.2584,8.8027,-1.0727,1.0196,-0.4888,0.0883,0.445,0.234,32.61,-6.73,-19.83,275.72,-26.39,2.38,2,54.404,19.519829,-96.91554,4364.52,1.8,16.129032,14 / 14,86.4,90,4.132,69560,2014-11-08 13:54:04:620
-0.8499,3.8211,9.1782,-0.2453,3.6876,9.0836,-0.6047,0.1336,0.0946,-0.1781,1.0899,2.1912,30.04,-21.53,-14.32,243.42,-22.09,1.55,2,64.948,19.519829,-96.91554,4364.52,1.8,16.129032,14 / 14,86.4,90,4.132,70080,2014-11-08 13:54:05:140
0.8607,2.7318,8.8933,0.5688,2.8765,9.358,0.2919,-0.1447,-0.4648,-0.9759,0.132,1.1355,9.22,-34.11,-12.95,198.71,-17.06,-3.48,2,70.052,19.519829,-96.91554,4364.52,1.8,16.129032,13 / 14,86.4,90,4.132,70597,2014-11-08 13:54:05:657
0.2502,2.8802,7.258,0.3678,4.7411,8.5765,-0.1176,-1.8609,-1.3185,0.2186,0.1166,-0.2127,-0.13,-37.11,-6.56,181.09,-26.24,-4.7,2,69.023,19.519829,-96.91554,4364.52,1.8,16.129032,13 / 14,86.4,90,4.132,71144,2014-11-08 13:54:06:204
0.1832,3.9887,10.1023,0.0424,3.3365,9.2215,0.1407,0.6523,0.8808,0.2401,0.1344,0.0527,7.46,-34.84,-11,193.58,-19.89,-0.26,2,71.611,19.519829,-96.91554,4364.52,1.8,16.129032,dic-14,86.4,90,4.132,71654,2014-11-08 13:54:06:714
0.1448,3.7792,7.8554,-0.1556,4.1454,8.8861,-1.8436,-1.2795,-0.1616,-0.5392,0.1069,0.8176,3.8,-36.3,-8.02,187.8,-26.06,0.4,2,66.111,19.519829,-96.91554,4364.52,1.8,16.129032,dic-14,86.4,90,4.132,72176,2014-11-08 13:54:07:236
0.0539,1.4581,12.3122,0.1948,3.1782,9.2753,-0.141,-1.7201,3.0369,1.5239,-0.0507,-0.6853,-0.9,-33.64,-12.39,178.86,-19.61,-2.11,2,60.199,19.519829,-96.91554,4364.52,1.8,16.129032,13 / 14,86.4,90,4.132,72756,2014-11-08 13:54:07:816
0.1293,5.6443,8.1965,-0.4093,5.0449,8.3995,0.5386,0.5994,-0.203,0.0259,0.1074,0.1608,6.9,-37.07,-3.71,192.98,-30.96,2.79,2,56.704,19.519829,-96.91554,4364.52,1.8,16.129032,13 / 14,86.4,90,4.132,73314,2014-11-08 13:54:08:374
0.832,3.2549,8.1786,0.1303,3.2839,9.2396,0.7017,-0.0289,-1.061,-0.7168,-0.1378,-0.1488,1.97,-34.48,-10.85,184.34,-19.56,-0.81,2,56.383,19.519829,-96.91554,4364.52,1.8,16.129032,13 / 15,86.4,90,4.132,73875,2014-11-08 13:54:08:935
-0.2478,1.251,6.7828,0.0804,3.5562,9.1388,-0.3282,-2.3052,-2.356,0.5207,0.13,-0.2535,7.76,-32.87,-12.48,195.35,-16.72,-1.32,2,56.156,19.519829,-96.91554,4364.52,1.8,16.129032,13 / 15,86.4,90,4.132,74418,2014-11-08 13:54:09:478
1.3958,2.9497,11.3306,-0.0057,1.5948,9.6761,1.4015,1.3548,1.6545,-0.6236,-0.498,1.2885,-0.21,-29.57,-16.89,187.53,-18.75,2.42,2,56.001,19.519829,-96.91554,4364.52,1.8,16.129032,13 / 15,86.4,90,4.132,74965,2014-11-08 13:54:10:025
0.243,2.1249,9.8485,0.1245,1.421,9.7024,0.1185,0.7039,0.1462,0.2191,-0.1747,-0.3125,-4.4,-28.41,-18.33,170.65,-11.05,-0.14,2,53.675,19.519829,-96.91554,4364.52,1.8,16.129032,13 / 15,86.4,90,4.132,75466,2014-11-08 13:54:10:526
0.492,2.381,6.9073,0.1102,2.7779,9.4043,1.3658,-2.1135,0.0528,-0.2127,-0.3713,-0.8652,4.05,-33.17,-13.51,188.55,-16.46,-0.67,2,53.943,19.519829,-96.91554,4364.52,1.8,16.129032,13 / 15,86.4,90,4.132,75970,2014-11-08 13:54:11:030
-1.4569,1.3012,10.3789,-2.4671,2.1941,9.2342,0.2908,0.0673,2.416,-0.1337,-0.6475,0.5712,11.58,-31.54,-14.94,195.82,-12.93,14.96,2,52.241,19.519829,-96.91554,4364.52,1.8,16.129032,13 / 15,86.4,90,4.132,76480,2014-11-08 13:54:11:540
-1.7119,2.0961,9.4942,-0.8783,3.1975,9.229,-0.733,-0.1844,-1.637,0.9388,-0.0795,0.8195,6.9,-34.35,-13.31,191.7,-19.03,5.44,2,56.014,19.519829,-96.91554,4364.52,1.8,16.129032,13 / 15,86.4,90,4.132,77008,2014-11-08 13:54:12:068
0.316,3.9744,8.509,0.9146,4.5259,8.6516,-0.5917,0.5828,0.4131,-0.0473,-0.1891,0.4182,-0.45,-38.01,-6.8,180.29,-26.54,-1.29,2,63.272,19.519829,-96.91554,4364.52,1.8,16.129032,dic-15,86.4,90,4.132,77521,2014-11-08 13:54:12:581
1.2629,4.3706,8.266,0.8301,4.1976,8.8239,0.6867,0.5195,-0.2253,0.1137,0.4087,0.6812,-8.45,-35.25,-8.81,165.47,-25.34,-5.37,2,57.389,19.519829,-96.91554,4364.52,1.8,16.129032,dic-15,86.4,90,4.132,78035,2014-11-08 13:54:13:095
0.2705,4.6519,7.7309,0.4127,4.2326,8.8366,-0.1422,0.4194,-1.1057,0.0576,0.468,0.628,-18.25,-27.19,-13.76,141.39,-25.68,-4.51,2,60.037,19.519829,-96.91554,4364.52,1.8,16.129032,13 / 15,86.4,90,4.132,78642,2014-11-08 13:54:13:702
1.415,2.7725,7.3897,0.4879,4.4241,8.7384,0.927,-1.6517,-1.3487,0.4753,-0.0622,-0.6141,-17.2,-27.59,-13.4,139.02,-26.82,-3.2,2,56.097,19.519829,-96.91554,4364.52,1.8,16.129032,13 / 15,86.4,90,4.132,79208,2014-11-08 13:54:14:268
0.3184,3.4644,10.1837,0.2566,3.5916,9.1217,0.0618,-0.1272,1.0621,0.1342,0.2142,0.4448,-16.21,-25.86,-17.47,141.25,-20.61,-2.32,2,64.594,19.520037,-96.91529,,,275.80646,13 / 14,86.4,90,4.132,79716,2014-11-08 13:54:14:776
-0.006,3.6416,8.5868,0.3298,3.539,9.1399,-0.3357,0.1026,-0.5531,-0.0644,0.0139,-0.0873,-17.8,-24.23,-17.99,134.31,-21.54,-3.01,2,58.91,19.520037,-96.91529,,,275.80646,13 / 14,86.4,90,4.132,80229,2014-11-08 13:54:15:289
0.5602,3.2382,8.3797,0.662,4.3196,8.7791,-0.1017,-1.0815,-0.3994,0.1576,-0.0629,-0.1974,-16.49,-28.09,-14.62,137.14,-25.07,-3.42,2,51.181,19.520037,-96.91529,,,275.80646,dic-14,86.4,90,4.085,80731,2014-11-08 13:54:15:791
1.8555,3.4321,9.1782,0.9333,3.2062,9.2206,0.9222,0.2259,-0.0424,-0.1532,0.1791,0.2479,-16.9,-26.67,-16.51,141.59,-19.8,-6.02,2,51.514,19.520037,-96.91529,,,275.80646,dic-14,86.4,90,4.085,81270,2014-11-08 13:54:16:330
0.3005,2.4565,9.1387,1.1927,2.9923,9.2625,-0.8922,-0.5359,-0.1238,-0.1039,0.0656,-0.0144,-19.94,-21.35,-19.77,126.42,-18.2,-6.25,2,49.751,19.519812,-96.91555,4364.52,2.25,16.129032,dic-13,86.4,90,4.085,81832,2014-11-08 13:54:16:892
1.1624,3.4417,9.1854,0.864,2.8192,9.3529,0.2984,0.6224,-0.1675,0.0825,-0.0329,-0.2664,-18.05,-22.06,-21.18,132.05,-16.9,-5.04,2,72.541,19.519812,-96.91554,4364.84,2.25,16.129032,nov-13,86.4,90,4.085,82394,2014-11-08 13:54:17:454
1.3515,3.0011,9.2751,0.9455,3.6312,9.0604,0.4061,-0.6301,0.2147,-0.0615,0.0371,-0.0142,-16.79,-27.04,-19.13,138.72,-22.27,-5.51,2,74.465,19.519812,-96.91554,4364.84,2.25,16.129032,nov-13,86.4,90,4.085,82937,2014-11-08 13:54:17:997
0.9445,3.1077,9.4822,1.2173,3.0979,9.2245,1.1841,0.248,0.3547,0.0542,0.2369,0.2798,-18.05,-23.29,-21.85,133.47,-18.42,-7.52,2,68.918,19.519802,-96.915535,4364.84,2.7,16.129032,dic-13,86.4,90,4.085,83457,2014-11-08 13:54:18:517
0.7793,3.4955,9.1746,1.1955,3.1635,9.2051,-0.4162,0.332,-0.0305,0.1815,0.1327,0.1718,-19.85,-21.16,-22.38,125.24,-18.82,-7.4,2,73.44,19.519802,-96.915535,4364.84,2.7,16.129032,dic-13,86.4,90,4.085,83977,2014-11-08 13:54:19:037
1.0511,3.4381,9.0273,1.217,3.6169,9.0337,-0.2366,-0.4589,-0.2398,0.2406,-0.0515,-0.0825,-20.48,-21.27,-22.56,123,-20.24,-7.59,2,51.187,19.519796,-96.915535,4364.52,2.47,16.129032,nov-13,86.4,90,4.085,84503,2014-11-08 13:54:19:563
1.0642,3.4632,8.9675,1.4575,3.6044,9.003,-0.5046,0.0288,-0.1205,0.04,-0.049,0.1701,-20.61,-22.26,-22.02,122.75,-21.63,-8.37,2,47.863,19.519796,-96.915535,4364.52,2.47,16.129032,nov-13,86.4,90,4.085,85012,2014-11-08 13:54:20:072
2.5043,2.2733,8.6419,2.4198,3.9512,8.6431,0.0845,-1.6779,-0.0012,0.1274,0.2759,1.0559,-26.05,-16.4,-19.77,101.68,-23.76,-15.64,2,70.129,19.519787,-96.915535,4364.52,2.93,16.129032,09-dic,86.4,90,4.085,85520,2014-11-08 13:54:20:580
3.699,3.2669,7.774,3.6614,3.4209,8.4298,0.0376,-0.154,-0.6559,0.1269,0.3691,-0.1105,-29.35,-6.54,-19.27,79.44,-20.42,-23.48,2,68.168,19.519787,-96.915535,4364.52,2.93,16.129032,09-dic,86.4,90,4.085,86038,2014-11-08 13:54:21:098
4.1456,3.0287,8.5844,3.7201,3.2102,8.4868,0.0914,-0.0571,0.0174,-0.1415,0.0293,0.0112,-29.31,-7.87,-18.61,83.37,-19.58,-23.69,2,47.303,19.51978,-96.91553,4364.19,2.7,16.129032,11-dic,86.4,90,4.085,86556,2014-11-08 13:54:21:616
3.2645,3.1448,8.7879,3.2097,3.3134,8.6539,0.0548,-0.1686,0.134,0.1518,0.3865,0.1152,-27.85,-6.43,-20.8,76.86,-19.53,-21.39,2,46.61,19.51978,-96.91553,4364.19,2.7,16.129032,11-dic,86.4,90,4.085,87111,2014-11-08 13:54:22:171
3.6164,4.0019,7.8697,3.7424,4.0834,8.0926,-0.1259,-0.0815,-0.2229,-0.0815,-1.2321,-0.3789,-29.35,-9.99,-18.52,80.24,-24.61,-24.82,2,46.793,19.51978,-96.91553,4364.19,2.7,16.129032,09-dic,86.4,90,4.085,87658,2014-11-08 13:54:22:718
4.689,3.9899,7.2556,4.6259,4.1007,7.6129,0.0631,-0.1108,-0.3572,0.0254,-0.0266,-0.0449,-31.95,-10.7,-13.87,84.43,-24.72,-31.28,2,48.074,19.51978,-96.91553,4364.19,2.7,16.129032,09-dic,86.4,90,4.085,88192,2014-11-08 13:54:23:252
4.6902,4.312,7.4292,4.6102,4.3256,7.497,0.0908,0.0163,-0.0941,0.0024,0.021,-0.0747,-31.6,-11.53,-13.85,82.41,-25.84,-31.83,2,47.555,19.519785,-96.91552,4364.19,1.8,16.129032,08-nov,86.4,90,4.085,88717,2014-11-08 13:54:23:777
4.0773,4.3586,7.513,4.1785,4.445,7.678,-0.1012,-0.0863,-0.165,0.1054,0.1435,0.0027,-29.5,-12.22,-15.84,84,-26.67,-28.91,2,61.055,19.519785,-96.91552,4364.19,1.8,16.129032,08-nov,86.4,90,4.085,89258,2014-11-08 13:54:24:318
1.5526,4.1348,8.3725,2.0879,4.3962,8.5138,-0.5353,-0.2615,-0.1412,0.8769,0.9108,-0.1513,-23.86,-10.21,-22.26,87.62,-20.5,-18.93,2,63.588,19.519785,-96.91552,4364.19,1.8,16.129032,09-nov,86.4,90,4.085,89812,2014-11-08 13:54:24:872
-0.0814,5.533,7.92,0.393,5.3747,8.1932,-0.4744,0.1583,-0.2732,0.1405,0.1327,0.0344,-16.06,-16.79,-27.06,86.95,-32.57,-3.84,2,68.646,19.519772,-96.91551,4364.84,2.7,16.129032,09-nov,86.4,90,4.085,90414,2014-11-08 13:54:25:474
0.1149,5.1152,8.2133,0.3492,5.1653,8.3288,-0.2343,-0.0501,-0.1155,-0.1142,0.0634,0.0056,-15.85,-15.59,-27.47,86.3,-31.78,-2.4,2,64.959,19.519772,-96.91551,4364.84,2.7,16.129032,09-nov,86.4,90,4.085,90928,2014-11-08 13:54:25:988
1.3288,3.9073,8.7101,1.4643,4.0515,8.8097,-0.1355,-0.1442,-0.0996,-0.0385,-0.2159,-0.0364,-19.71,-11.98,-26.24,86.31,-24.71,-8.13,2,61.607,19.519768,-96.91551,4364.84,2.47,16.129032,08-nov,86.4,90,4.085,91456,2014-11-08 13:54:26:516
0.2191,4.6531,8.5114,0.4396,4.6049,8.6471,-0.2206,0.0482,-0.1357,0.3045,0.1718,0.0332,-16.27,-14.19,-28.32,83.9,-26.93,-4.03,2,63.979,19.519768,-96.91551,4364.84,2.47,16.129032,08-nov,86.4,90,4.085,91979,2014-11-08 13:54:27:039
0.5483,3.814,8.7999,0.5431,4.0617,8.9094,0.0051,-0.2477,-0.1095,-0.1937,0.0276,0.0556,-17.04,-11.88,-28.6,84.02,-31.12,0.3,2,68.262,19.51976,-96.915504,4365.16,2.47,16.129032,09-nov,86.4,90,4.085,92599,2014-11-08 13:54:27:659
1.8675,3.1639,8.7975,1.3863,3.2126,9.1612,0.4812,-0.0487,-0.3637,0.0659,0.2345,0.0649,-20.95,-6.52,-27.83,78.13,-19.12,-8.6,2,69.561,19.51976,-96.915504,4365.16,2.47,16.129032,09-nov,86.4,90,4.085,93129,2014-11-08 13:54:28:189
0.419,3.2262,9.147,0.9975,2.9763,9.2907,-0.5785,0.2499,-0.1436,0.1962,0.1796,-0.0693,-19.68,-5.94,-29.48,77.63,-17.67,-6.13,2,67.497,19.519753,-96.915504,4365.48,2.93,16.129032,09-nov,86.4,90,4.085,93718,2014-11-08 13:54:28:778
1.2019,3.863,9.8857,1.1078,3.4592,9.1092,0.0941,0.4038,0.7765,-0.1679,-0.4704,-0.7485,-20.24,-11.83,-28.2,84.56,-20.89,-5.07,2,66.113,19.519753,-96.915504,4365.48,2.93,16.129032,09-nov,86.4,90,4.085,94318,2014-11-08 13:54:29:378
1.8292,2.654,9.6391,1.161,2.6398,9.3731,0.6682,0.0142,0.266,0.0171,0.2625,-0.2132,-19.28,-19.58,-26.93,126.32,-15.62,-7.06,2,61.23,19.519753,-96.915504,4365.48,2.93,16.129032,09-nov,86.4,90,4.085,94989,2014-11-08 13:54:30:049
1.7957,2.6288,9.3613,0.6866,2.9466,9.3283,1.109,-0.3178,0.0331,-0.0688,0.4528,0.2977,-17.63,-20.15,-28.15,123.45,-17.36,-4.76,2,49.545,19.519753,-96.915504,4365.48,2.93,16.129032,09-nov,86.4,90,4.085,95620,2014-11-08 13:54:30:680
-0.431,2.5989,8.5976,0.9117,2.7726,9.3623,-0.7083,0.1146,-0.454,0.0869,0.1549,-0.4692,-19.1,-20.48,-27.36,123.09,-18.28,-8.16,2,55.216,19.519753,-96.915504,4365.48,2.93,16.129032,09-nov,86.4,90,4.085,96142,2014-11-08 13:54:31:202
-1.087,3.571,11.0504,-0.3191,3.3359,9.2163,-0.7679,0.235,1.8341,-0.3318,0.1154,-0.2379,-13.19,-22.64,-30.43,129.48,-14.1,4.32,2,55.881,19.519756,-96.915504,4365.16,1.13,16.129032,09-nov,86.4,90,4.085,96710,2014-11-08 13:54:31:770
2.3631,5.2672,8.6945,1.4709,4.3886,8.6457,0.8921,0.8787,0.0489,-0.2074,0.4111,-0.0971,-22.02,-29.72,-22.96,130.13,-26.58,-9.66,2,53.447,19.519756,-96.915504,4365.16,1.13,16.129032,09-nov,86.4,90,4.085,97251,2014-11-08 13:54:32:311
-2.2398,4.44,8.831,-0.1017,4.9051,8.4912,-2.1381,-0.4651,0.3398,0.6212,0.1161,0.3296,-20.95,-28.07,-29.1,114.81,-30.01,0.69,2,44.737,19.51975,-96.91551,4365.16,2.02,32.258064,09-nov,86.4,90,4.085,97855,2014-11-08 13:54:32:915
0.0359,3.9109,8.1331,0.5833,3.58,9.1112,-0.5474,0.3309,-0.9781,-0.2689,-0.1679,0.029,-25.02,-24.7,-26.48,119.58,-21.41,-3.66,2,47.604,19.519737,-96.91552,4364.84,3.6,32.258064,09-nov,86.4,90,4.085,98418,2014-11-08 13:54:33:478
1.725,3.0622,7.4041,0.8365,4.3368,8.7557,0.8885,-1.2746,-1.3516,0.0683,0.7646,-0.3499,-23.41,-35.4,-18.16,137.86,-26.01,-8.65,2,72.637,19.519737,-96.91552,4364.84,3.6,32.258064,09-nov,86.4,90,4.085,98980,2014-11-08 13:54:34:040
1.4473,1.7765,9.4547,0.8929,1.2155,9.69,0.5544,0.561,-0.2353,-1.2477,0.5238,0.8176,-22.92,-30.12,-24.81,137.77,-14.63,-6.41,2,67.418,19.519732,-96.91551,4364.84,2.02,32.258064,09-nov,86.4,90,4.085,99516,2014-11-08 13:54:34:576
2.2637,2.296,9.3529,2.4554,1.7777,9.3264,-0.1917,0.5183,0.0266,-0.304,0.4916,0.2569,-30.42,-24.46,-17.22,128,-11.87,-17.75,2,70.531,19.519732,-96.91551,4364.84,2.02,32.258064,09-nov,86.4,90,4.085,100048,2014-11-08 13:54:35:108
0.1293,4.2066,12.7551,0.224,3.5557,9.1366,-0.0947,0.6509,3.6185,1.176,2.2063,-1.5234,-19.04,-30.34,-22.43,137.04,-21.26,-1.4,2,54.872,19.519724,-96.91552,4364.84,2.25,32.258064,08-nov,86.4,90,4.085,100575,2014-11-08 13:54:35:635
2.5067,9.8007,5.1404,1.3975,7.5814,6.0613,1.1092,2.2193,-0.921,-0.8007,1.2121,-0.3477,17.32,-42.67,5.68,203.65,-50.63,-12.98,2,41.84,19.519724,-96.91552,4364.84,2.25,32.258064,08-nov,86.4,90,4.085,101090,2014-11-08 13:54:36:150
3.2908,8.2301,3.9157,0.9501,7.5157,6.2275,2.3408,0.7144,-2.3118,-0.0293,0.302,0.4277,19.34,-40.55,3.65,215.12,-48.67,-3.27,2,44.256,19.519724,-96.91552,4364.84,2.25,32.258064,08-nov,86.4,90,4.085,101635,2014-11-08 13:54:36:695
3.3028,8.4994,4.0211,2.3015,7.6198,5.7282,1.0013,0.8796,-1.7072,0.0039,-0.0178,-0.0383,16.81,-41.38,2.59,205.06,-50.58,-18.58,2,53.394,19.519724,-96.91552,4364.84,2.25,32.258064,08-nov,86.4,90,4.085,102147,2014-11-08 13:54:37:207
3.7134,8.6945,3.5039,2.5722,7.8586,5.2722,1.1412,0.8359,-1.7683,0.0254,0.0251,-0.0403,15.09,-41.96,4.72,198.37,-53.26,-26.01,2,55.68,19.519718,-96.91551,4364.84,1.8,32.258064,08-nov,86.4,90,4.085,102708,2014-11-08 13:54:37:768
3.4979,8.746,4.0761,2.3425,8.075,5.0474,0.8394,0.501,-1.6022,0.0527,0.871,-0.212,14.99,-42.22,6.24,198.3,-55.43,-24.9,2,59.307,19.519718,-96.91551,4364.84,1.8,32.258064,08-nov,86.4,90,4.085,103299,2014-11-08 13:54:38:359
2.1177,7.6674,5.8407,1.2764,7.8762,5.7015,0.3253,-0.2076,-0.5204,-0.3186,0.8744,0.6185,8.88,-43.18,10.03,190.67,-53.43,-12.62,2,64.926,19.519712,-96.915504,4364.84,2.02,32.258064,08-nov,86.4,90,4.085,103819,2014-11-08 13:54:38:879
0.1867,6.7959,6.9707,-0.0302,6.7537,7.1104,0.0219,-0.0643,-0.2046,-0.1444,0.4562,0.1435,-1.27,-43.35,3.28,177.54,-44.92,-7.76,2,56.844,19.519712,-96.915504,4364.84,2.02,32.258064,08-nov,86.4,90,4.085,104379,2014-11-08 13:54:39:439
3.0993,7.6231,6.5182,2.4076,7.1937,6.2149,0.6916,0.4295,0.3033,0.4631,-0.1347,-0.1891,-5.6,-42.62,7.37,165.93,-47.18,-21.18,2,56.33,19.519712,-96.915504,4364.84,2.02,32.258064,08-nov,86.4,90,4.085,104901,2014-11-08 13:54:39:961
2.721,8.0541,5.1763,2.6643,7.8635,5.219,0.0567,0.1906,-0.0427,0.0786,-0.0973,-0.0898,-3.24,-42.86,11.98,166.48,-52.8,-26.57,2,57.896,19.519705,-96.91551,4364.84,1.13,32.258064,08-nov,86.4,90,4.085,105461,2014-11-08 13:54:40:521
2.2733,7.6926,5.6324,2.4321,7.682,5.5895,-0.1588,0.0106,0.0429,-0.0488,0.0303,-0.0159,-2.36,-43.01,10.29,170.1,-51.65,-23.39,2,60.138,19.519705,-96.91551,4364.84,1.13,32.258064,08-nov,86.4,90,4.085,106040,2014-11-08 13:54:41:100
2.1093,7.3706,6.0813,2.301,7.3838,6.0296,-0.1918,-0.0132,0.0517,-0.0766,0.0603,0.0278,-2.55,-43.38,7.46,170.72,-48.85,-20.89,2,54.583,19.5197,-96.915504,4364.84,0.9,32.258064,08-nov,86.4,90,4.085,106576,2014-11-08 13:54:41:636
2.1237,7.1048,6.5625,2.4584,7.1346,6.2629,-0.5406,-0.1287,0.3624,-0.0864,0.0102,-0.0142,-3.34,-43.14,5.47,171.22,-47.5,-21.59,2,66.619,19.5197,-96.915504,4364.84,0.9,32.258064,08-nov,86.4,90,4.085,107110,2014-11-08 13:54:42:170
1.4078,6.8091,6.7469,1.8713,6.7577,6.8558,-0.4635,0.0514,-0.109,-0.0478,0.1161,0.0468,-5.15,-43.07,2.59,170.13,-43.56,-15.27,2,47.596,19.5197,-96.915504,4364.84,0.9,32.258064,08-dic,86.4,90,4.085,107620,2014-11-08 13:54:42:680
1.1349,6.2848,7.1132,2.0333,6.634,6.9301,-0.8985,-0.3492,0.1831,-0.0107,0.1317,0.0407,-6.35,-42.65,1.93,168.86,-42.22,-15.48,2,40.381,19.5197,-96.915504,4364.84,0.9,32.258064,08-dic,86.4,90,4.085,108147,2014-11-08 13:54:43:207
1.998,6.7241,7.0521,2.3898,6.5637,6.8832,-0.3918,0.1605,0.169,-0.1215,-0.1061,-0.1056,-8.77,-41.51,1.89,163.28,-42.01,-19.15,2,49.164,19.5197,-96.915504,4364.84,0.9,32.258064,07-dic,86.4,90,4.085,108736,2014-11-08 13:54:43:796
1.6053,6.7301,7.0629,2.0289,6.5734,6.9889,-0.4236,0.1567,0.074,0.059,-0.0305,0.0132,-7.89,-41.72,1.29,165.29,-42.09,-16.19,2,70.312,19.5197,-96.915504,4364.84,0.9,32.258064,07-dic,86.4,90,4.085,109291,2014-11-08 13:54:44:351
1.5383,6.6056,7.1036,2.063,6.5572,6.9941,-0.5247,0.0484,0.1095,0.0444,-0.0281,7.00E-04,-8.13,-41.81,1.35,165.31,-41.96,-16.43,2,58.359,19.5197,-96.915504,4364.84,0.9,32.258064,05-dic,86.4,90,4.085,109800,2014-11-08 13:54:44:860
1.1372,6.0238,8.0146,2.0712,6.3744,7.1588,-0.934,-0.3505,0.8558,-0.2557,-0.1964,-0.204,-6.9,-41.72,0.47,167.63,-40.54,-16.14,2,65.561,19.5197,-96.915504,4364.84,0.9,32.258064,06-dic,86.4,90,4.085,110355,2014-11-08 13:54:45:415
1.4102,5.9807,7.4687,2.044,6.3303,7.2056,-0.6734,-0.1482,0.0299,0.0586,0.0166,0.0503,-7.44,-41.75,-0.17,167.68,-40.2,-15.84,2,70.352,19.5197,-96.915504,4364.84,0.9,32.258064,06-dic,87.1,89,4.053,110892,2014-11-08 13:54:45:952
1.1037,6.4572,7.4555,1.7451,6.5115,7.1221,-0.6414,-0.0544,0.3334,-0.0151,0.2291,-0.0224,-8.38,-41.44,0.51,165.04,-41.67,-14.94,2,56.595,19.519676,-96.9155,4364.52,2.47,32.258064,06-dic,87.1,89,4.053,111459,2014-11-08 13:54:46:519
-0.7219,4.6495,9.177,0.1722,4.7149,8.5971,-0.8941,-0.0653,0.5798,-1.0413,0.2476,0.365,-12.24,-36.77,-12.78,157.68,-33.27,-1.56,2,42.911,19.519676,-96.9155,4364.52,2.47,32.258064,06-dic,87.1,89,4.053,112005,2014-11-08 13:54:47:065
-0.2298,3.6344,8.7652,0.5044,3.7307,9.0553,-0.7342,-0.0963,-0.2901,0.1508,0.0303,0.233,-17.37,-30.55,-17.73,143.36,-22.36,-3.19,2,47.235,19.519672,-96.9155,4364.19,2.02,32.258064,jun-13,87.1,89,4.053,112605,2014-11-08 13:54:47:665
0.2406,3.6069,9.0225,0.7034,3.7014,9.054,-0.4832,-0.0215,-0.1703,0.0537,-0.0488,0.0312,-19.66,-28.82,-18.8,135.99,-22.18,-4.44,2,64.543,19.519672,-96.9155,4364.19,2.02,32.258064,jun-13,87.1,89,4.053,113152,2014-11-08 13:54:48:212
-0.2442,2.9125,9.3996,0.6743,3.0998,9.2794,-0.9185,-0.1872,0.1202,-0.8349,0.6392,0.1691,-21.29,-28.34,-18.31,134.54,-22.06,-7.33,2,62.055,19.519672,-96.9155,4364.19,2.02,32.258064,jun-13,87.1,89,4.053,113661,2014-11-08 13:54:48:721
4.4532,4.1132,6.7804,4.3165,4.5404,7.5447,0.1367,-0.4271,-0.7643,1.4649,-2.0104,0.5331,-27.92,-25.3,-9.16,121.4,-27.58,-29.77,2,61.597,19.519672,-96.9155,4364.19,2.02,32.258064,jun-13,87.1,89,4.053,114285,2014-11-08 13:54:49:345
7.7273,2.6336,4.8315,7.9562,2.6123,5.1035,-0.2289,0.0213,-0.272,0.263,-0.2281,0.0995,-36.62,-8.68,12.35,94.13,-15.49,-56.56,2,54.558,19.519665,-96.91549,4363.87,1.8,32.258064,jun-13,87.1,89,4.053,115007,2014-11-08 13:54:50:067
2.6396,0.1628,8.8502,3.0807,0.3846,9.3022,-0.4411,-0.2218,-0.4521,-0.9364,1.45,-0.4455,-32.78,-1.87,-15.24,92.22,-2.25,-18.32,2,60.727,19.519665,-96.91549,4363.87,1.8,32.258064,jun-13,87.1,89,4.053,115812,2014-11-08 13:54:50:872
0.0934,5.0111,8.1068,0.9623,4.6514,8.5795,-0.869,0.3596,-0.4728,0.5558,0.7754,-0.4511,-26.07,-14.54,-23.71,91.28,-28.31,-6.4,2,56.592,19.519665,-96.91549,4363.87,1.8,32.258064,ago-13,87.1,89,4.053,116358,2014-11-08 13:54:51:418
0.3687,7.118,7.0174,0.8921,6.7311,7.0758,-0.5234,0.3869,-0.0584,0.1513,-0.0268,-0.0288,-25.45,-23.93,-17.78,100.39,-41.45,-6.98,2,62.923,19.519672,-96.915504,4363.55,0.23,32.258064,ago-13,87.1,89,4.053,117318,2014-11-08 13:54:52:378
0.0347,6.8929,7.0282,0.4118,6.5615,7.2765,-0.3771,0.3314,-0.2484,0.0693,-0.1222,-0.0024,-23.71,-22.58,-19.64,97.06,-42,-3.24,2,63.851,19.519672,-96.915504,4363.55,0.23,32.258064,jul-13,87.1,89,4.053,117941,2014-11-08 13:54:53:001
0.0359,6.4272,7.0641,0.3718,6.2034,7.5862,-0.3359,0.2239,-0.5221,-0.0683,-0.4092,-0.0773,-24.27,-21.89,-20.48,94.01,-42.82,-3.41,2,58.486,19.519672,-96.915504,4363.55,0.23,32.258064,jul-13,87.1,89,4.053,118466,2014-11-08 13:54:53:526
0.9685,5.1487,8.2361,1.0668,5.1603,8.2707,-0.0983,-0.0115,-0.0346,-0.0683,0.0356,-0.0898,-26.56,-18.46,-19.81,97.05,-31.84,-7.41,2,65.488,19.519672,-96.915504,4363.55,0.23,32.258064,jul-13,87.1,89,4.053,119227,2014-11-08 13:54:54:287
0.3555,4.7681,8.5916,0.4515,4.6864,8.6026,-0.096,0.0817,-0.011,0.3235,-0.3979,0.0559,-24.91,-18.48,-21.98,101.13,-28.55,-3,2,65.057,19.519672,-96.915504,4363.55,0.23,32.258064,jul-13,87.1,89,4.053,119832,2014-11-08 13:54:54:892
0.4669,4.7992,8.3641,0.6258,4.8477,8.5017,-0.1589,-0.0485,-0.1375,-0.0195,-0.0232,-0.0534,-25.69,-19.3,-21.03,101.71,-29.88,-4.47,2,53.309,19.519672,-96.915504,4363.55,0.23,32.258064,jul-13,87.1,89,4.053,120468,2014-11-08 13:54:55:528
0.1484,4.2042,8.8202,0.4146,4.1768,8.863,-0.2661,0.0274,-0.0428,-0.2581,0.0751,-0.0261,-24.85,-17.78,-22.25,103.99,-30.26,-3.93,2,51.728,19.519672,-96.915504,4363.55,0.23,32.258064,jul-13,87.1,89,4.053,121010,2014-11-08 13:54:56:070
0.3699,4.0917,8.5281,0.4454,4.0871,8.9032,-0.0755,0.0046,-0.3751,-0.0395,-0.0317,-0.0539,-24.66,-17.43,-22.4,103.93,-24.88,-2.88,2,48.082,19.519672,-96.915504,4363.55,0.23,32.258064,jul-13,87.1,89,4.053,121564,2014-11-08 13:54:56:624
0.3292,3.9911,8.8502,0.5438,3.9841,8.9443,0.044,-0.1079,-0.093,0.0239,-0.0808,-0.0324,-25.37,-17.78,-22.58,105.43,-24.05,-2.69,2,52.145,19.519672,-96.915504,4363.55,0.23,32.258064,jul-13,87.1,89,4.053,122069,2014-11-08 13:54:57:129
0.8871,3.8235,9.074,0.891,3.8208,8.9877,-0.004,0.0027,0.0864,-0.061,-0.0566,-0.0095,-26.18,-17.63,-21.4,106.8,-23.47,-5.19,2,52.534,19.519672,-96.915504,4363.55,0.23,32.258064,ago-13,87.1,89,4.053,122570,2014-11-08 13:54:57:630
0.6009,3.5159,8.7903,0.6841,3.7076,9.053,-0.0831,-0.1917,-0.2626,-0.0976,0.0046,-0.0112,-25.73,-16.89,-22.38,105.63,-21.97,-5.27,2,49.513,19.519672,-96.915504,4363.55,0.23,32.258064,ago-13,87.1,89,4.053,123070,2014-11-08 13:54:58:130
0.8499,3.6356,9.0621,0.7814,3.687,9.0535,-0.1409,0.0193,0.1067,-0.0425,0.0146,-0.009,-25.79,-16.6,-22.21,105.7,-21.93,-4.92,2,55.794,19.519665,-96.915474,4365.16,1.58,32.258064,ago-13,87.1,89,4.053,123570,2014-11-08 13:54:58:630
-0.2466,3.644,8.4623,0.4585,3.4222,9.1787,0.3579,-0.1026,0.4759,-0.0917,-0.1574,0.0239,-25.13,-16.02,-23.41,104.21,-21.47,-2.68,2,58.254,19.519665,-96.915474,4365.16,1.58,32.258064,ago-13,87.1,89,4.053,124070,2014-11-08 13:54:59:130
0.4477,3.4907,9.0944,0.6074,3.449,9.16,0.0115,0.0083,-0.1423,0.1249,0.0373,-0.0015,-26.35,-16.42,-23.07,104.47,-20.59,-3.79,2,56.148,19.51966,-96.91547,4365.48,1.8,32.258064,sep-13,87.1,89,4.053,124570,2014-11-08 13:54:59:630
0.5363,3.4979,9.0381,0.4327,3.238,9.2465,0.0844,0.0923,-0.6561,-0.667,0.4584,0.0207,-26.18,-15.76,-23.59,105.27,-19.28,-2.68,2,60.749,19.51966,-96.91547,4365.48,1.8,32.258064,sep-13,87.1,89,4.053,125071,2014-11-08 13:55:00:131
0.5806,3.4692,9.2404,0.5076,3.4318,9.1725,0.073,0.0374,0.0679,0.0288,-0.0137,-0.022,-25.54,-15.97,-22.83,104.64,-20.48,-3.17,2,62.723,19.519651,-96.91546,4366.13,3.15,32.258064,08-dic,87.1,89,4.053,125571,2014-11-08 13:55:00:631
0.3998,3.3722,8.9735,0.4571,3.4094,9.1835,-0.0572,-0.0372,-0.2101,0.0078,-0.0232,-0.0076,-25.39,-16.19,-22.98,105.45,-20.34,-2.85,2,49.568,19.519651,-96.91546,4366.13,3.15,32.258064,08-dic,87.1,89,4.053,126071,2014-11-08 13:55:01:131
0.486,3.3507,9.1423,0.4957,3.3707,9.1958,-0.0097,-0.02,-0.0536,0.0015,0.0078,0.0068,-26.2,-16.17,-23.56,104.32,-20.13,-2.98,2,51.545,19.519648,-96.91546,4366.77,2.25,32.258064,08-dic,87.1,89,4.053,126571,2014-11-08 13:55:01:631
0.4836,3.2992,9.1877,0.5064,3.381,9.1915,-0.0228,-0.0818,-0.0037,0.0137,-0.0159,-0.0071,-25.97,-16,-23.24,104.98,-20.17,-3.15,2,60.389,19.519648,-96.91546,4366.77,2.25,32.258064,08-dic,87.1,89,4.053,127071,2014-11-08 13:55:02:131
0.3364,3.4872,8.8765,0.514,3.385,9.1896,-0.1776,0.1022,-0.3131,0.1542,0.1176,0.0393,-26.41,-15.85,-23.18,106.25,-18.95,-3.97,2,71.584,19.519636,-96.91546,4366.77,3.15,32.258064,08-dic,87.1,89,4.053,127571,2014-11-08 13:55:02:631
0.595,2.8718,9.5205,0.6369,3.0544,9.2971,-0.0419,-0.1825,0.2235,0.1396,-0.0415,0.09,-25.66,-14.43,-24.06,102.1,-18.32,-3.82,2,67.47,19.519636,-96.91546,4366.77,3.15,32.258064,08-dic,87.1,89,4.053,128071,2014-11-08 13:55:03:131
0.6548,3.808,8.8657,0.67,3.7672,9.0294,-0.0152,0.0407,-0.1636,0.0059,-0.082,0.1217,-25.71,-14.41,-23.8,99.09,-20.96,-3.77,2,63.007,19.519625,-96.91546,4366.77,3.6,32.258064,08-dic,87.1,89,4.053,128571,2014-11-08 13:55:03:631
1.3228,3.7697,8.7065,1.184,4.0029,8.8739,0.1388,-0.2332,-0.1673,0.404,0.1981,-0.0647,-27.55,-14.02,-21.76,95.6,-22.8,-6.03,2,48.482,19.519625,-96.91546,4366.77,3.6,32.258064,08-dic,87.1,89,4.053,129071,2014-11-08 13:55:04:131
1.4138,4.525,8.6227,1.4586,4.4357,8.6236,-0.0448,0.0893,-9.00E-04,0.0459,0.0356,0.0581,-28.99,-15.4,-19.6,95.14,-26.89,-9.6,2,51.384,19.519625,-96.91546,4366.77,3.6,32.258064,08-dic,87.1,89,4.053,129571,2014-11-08 13:55:04:631
1.2522,4.4377,8.4791,1.3252,4.4977,8.6131,-0.0359,-0.0312,-0.0424,0.0576,-0.0056,0.0303,-27.44,-14.28,-20.45,93.89,-27.06,-8.72,2,46.735,19.519625,-96.91546,4366.77,3.6,32.258064,08-dic,87.1,89,4.053,130071,2014-11-08 13:55:05:131
1.6424,4.7764,8.3689,1.5968,4.71,8.452,0.052,0.1314,-0.0469,-0.1513,0.1317,-0.0217,-28.86,-14.67,-19.28,92.68,-28.78,-10.34,2,49.07,19.519611,-96.91546,4367.1,2.7,32.258064,08-nov,87.1,89,4.053,130571,2014-11-08 13:55:05:631
1.7502,4.2401,8.661,2.0171,4.3073,8.5761,0.1544,-0.1543,-0.2953,-0.3372,-0.2296,0.0693,-29.74,-13.61,-19.64,93.25,-26.29,-10.23,2,50.159,19.519611,-96.91546,4367.1,2.7,32.258064,08-nov,87.1,89,4.053,131071,2014-11-08 13:55:06:131
1.5969,4.2772,8.2708,1.7755,4.3721,8.5967,-0.1786,-0.0948,-0.3259,0.1688,0.3289,0.2462,-29.74,-12.26,-18.76,89.9,-25.33,-13.45,2,57.462,19.519608,-96.91546,4367.1,2.25,32.258064,07-nov,87.1,89,4.053,131572,2014-11-08 13:55:06:632
1.7358,4.5382,8.7436,1.9343,4.6657,8.406,-0.1985,-0.1275,0.3377,0.223,0.546,0.6902,-28.69,-5.13,-24.31,66.76,-28.41,-12.96,2,47.534,19.519608,-96.91546,4367.1,2.25,32.258064,07-nov,87.1,89,4.053,132073,2014-11-08 13:55:07:133
1.9237,4.5921,8.4563,1.3496,4.4434,8.6374,0.5742,0.1487,-0.1811,-0.4826,0.2501,1.0047,-20.86,4.69,-32.42,34.61,-28.61,-10.68,2,48.805,19.519604,-96.91544,4367.1,1.58,32.258064,08-nov,87.1,89,4.053,132574,2014-11-08 13:55:07:634
1.002,4.3718,8.904,1.0474,4.4138,8.6944,-0.0454,-0.042,0.2097,-0.1927,-0.1274,-0.2052,-15.89,6.71,-35.64,26.53,-26.75,-6.87,2,43.216,19.519604,-96.91544,4367.1,1.58,32.258064,08-nov,87.1,89,4.053,133074,2014-11-08 13:55:08:134
1.1325,4.1108,8.0325,1.4637,4.6004,8.5361,-0.3312,-0.4895,-0.5035,0.1654,-0.3628,-0.1652,-20.18,4.1,-34.13,37.13,-26.89,-7.84,2,52.342,19.5196,-96.91542,4367.1,1.58,32.258064,08-nov,87.1,89,4.053,133578,2014-11-08 13:55:08:638
2.0339,5.2158,8.5066,2.2257,4.9412,8.1732,-0.1919,0.2746,0.3334,0.3606,-0.0998,0.0054,-23.67,2.72,-31.15,36.03,-29.65,-14.52,2,49.559,19.5196,-96.91542,4367.1,1.58,32.258064,08-nov,87.1,89,4.053,134078,2014-11-08 13:55:09:138
1.4437,4.9907,8.2265,1.968,4.8372,8.3005,-0.5243,0.1535,-0.0741,-0.1176,-0.1625,0.0171,-19.58,4.18,-33.56,26.09,-30.84,-14.71,2,44.316,19.519604,-96.915405,4367.1,1.35,32.258064,08-nov,87.1,89,4.053,134579,2014-11-08 13:55:09:639
5.0218,4.5741,7.8207,3.7916,2.9507,8.5491,1.2302,1.6235,-0.7285,-0.5177,0.3157,0.122,-7.97,15.89,-33.73,345.81,-17.51,-23.92,2,50.934,19.519604,-96.915405,4367.1,1.35,32.258064,08-nov,87.1,89,4.053,135080,2014-11-08 13:55:10:140
4.7549,3.0526,8.4491,5.0236,3.2426,7.773,-0.2687,-0.19,0.6762,0.4621,0.2547,0.6563,-4.27,15.39,-35.33,338.87,-14.97,-28.16,2,59.006,19.519604,-96.91539,4367.42,2.47,32.258064,07-nov,87.1,89,4.053,135582,2014-11-08 13:55:10:642
5.7174,1.2438,8.5401,5.7329,2.0387,7.6907,-0.0156,-0.7949,0.8494,-0.0595,0.2879,0.7985,2.25,9.33,-39.39,303.21,-16.06,-38.13,2,55.03,19.519604,-96.91539,4367.42,2.47,32.258064,07-nov,87.1,89,4.053,136084,2014-11-08 13:55:11:144
6.4081,0.5016,7.2065,6.7187,1.1909,7.0436,-0.3106,-0.6893,0.163,-0.3577,-0.9669,0.1747,0.94,8.02,-39.52,292.1,-9.14,-37.4,2,55.75,19.519604,-96.91538,4367.1,2.7,32.258064,07-nov,87.1,89,4.053,136585,2014-11-08 13:55:11:645
7.6411,0.8164,5.9975,7.9169,0.9896,5.702,-0.2758,-0.1732,0.2954,-0.7471,-0.0793,-0.5907,-12.14,14.96,-34.3,303.44,-4,-53.08,2,50.71,19.519604,-96.91538,4367.1,2.7,32.258064,07-nov,87.1,89,4.053,137086,2014-11-08 13:55:12:146
8.4623,-0.3208,5.1918,7.9195,0.2464,5.7785,0.5428,-0.5672,-0.5867,-0.4143,-0.6561,-0.2901,-15.18,23.88,-25.73,333.77,-1.44,-53.88,2,46.437,19.519604,-96.91537,4367.1,3.6,32.258064,07-nov,87.1,89,4.053,137586,2014-11-08 13:55:12:646
9.1542,0.2155,2.5259,9.2155,-0.1368,3.3506,-0.0613,0.3522,-0.8247,-0.325,-0.1913,-0.1291,-22.13,27.34,-12.69,352.49,0.31,-67.39,2,51.749,19.519604,-96.91537,4367.1,3.6,32.258064,07-nov,87.1,89,4.053,138086,2014-11-08 13:55:13:146
9.0237,-0.4094,1.5227,9.501,-0.3286,2.4069,-0.4773,-0.0808,-0.8841,-0.2576,-0.0481,0.0659,-25.64,28.73,-0.96,10.9,1.92,-75.78,2,43.987,19.519602,-96.91536,4367.1,2.93,32.258064,06-nov,87.1,89,4.053,138586,2014-11-08 13:55:13:646
9.4355,-0.7709,1.9956,9.5577,-0.3956,2.1597,-0.1221,-0.3754,-0.1642,-0.0991,0.0864,-0.0173,-25.39,28.84,-1.33,9.2,2.31,-77.27,2,48.547,19.519602,-96.91536,4367.1,2.93,32.258064,06-nov,87.1,89,4.053,139086,2014-11-08 13:55:14:146
9.4703,-0.7817,1.9273,9.5849,-0.3776,2.0388,-0.0951,-0.3155,-0.2493,-0.0639,0.0822,-0.0276,-25.45,28.79,-1.71,6.61,2.21,-77.99,2,42.991,19.519604,-96.91535,4366.77,3.15,32.258064,07-nov,87.1,89,4.053,139587,2014-11-08 13:55:14:647
9.4822,-0.7997,1.7526,9.6103,-0.3856,1.9144,-0.0558,-0.1501,-0.317,-0.0795,-0.0151,0.0076,-25.47,29.09,-0.58,7.93,2.25,-78.73,2,51.016,19.519604,-96.91535,4366.77,3.15,32.258064,07-nov,87.1,89,4.053,140087,2014-11-08 13:55:15:147
9.4846,-0.8739,1.7035,9.6368,-0.4414,1.7631,-0.0727,-0.449,-0.0171,0.0259,-0.009,-0.0124,-25.37,28.75,-0.41,9.29,2.51,-79.48,2,48.437,19.519604,-96.91535,4366.77,3.15,32.258064,07-dic,87.1,89,4.053,140587,2014-11-08 13:55:15:647
9.4894,-0.7195,1.6664,9.662,-0.4725,1.6103,-0.1581,-0.5166,0.0808,-0.002,-0.0046,-0.0115,-25.69,28.79,-0.41,8.53,2.54,-80.37,2,57.259,19.519604,-96.91535,4366.77,3.15,32.258064,07-dic,87.1,89,4.041,141087,2014-11-08 13:55:16:147
9.6103,-0.8619,1.5239,9.6782,-0.4432,1.5188,-0.0272,-0.4654,0.369,0.0468,0.0276,-0.0215,-25.11,28.58,-0.04,8.04,2.68,-80.96,2,57.365,19.519611,-96.91535,4366.45,1.58,32.258064,07-nov,87.1,89,4.041,141591,2014-11-08 13:55:16:651
9.59,-0.7063,1.6568,9.6788,-0.4746,1.5054,-0.09,-0.3322,0.0988,0.0542,0.019,-0.0203,-24.98,28.67,0.26,7.88,2.77,-81.16,2,64.788,19.519611,-96.91535,4366.45,1.58,32.258064,07-nov,87.1,89,4.041,142091,2014-11-08 13:55:17:151
9.5517,-1.1265,1.5526,9.6808,-0.4843,1.4893,-0.0226,-0.052,0.1088,0.122,0.0456,-0.0876,-25.17,28.58,-0.02,7.76,2.93,-81.32,2,65.602,19.5196,-96.91534,4366.45,2.7,32.258064,07-nov,87.1,89,4.041,142591,2014-11-08 13:55:17:651
9.0094,-0.911,2.4181,9.5698,-0.6005,2.0564,-0.2839,-0.2362,0.2289,0.5982,-0.039,0.2154,-24.23,28.92,-4.12,5.23,2.29,-79.78,2,59.732,19.5196,-96.91534,4366.45,2.7,32.258064,07-nov,87.1,89,4.041,143091,2014-11-08 13:55:18:151
8.734,-0.9888,4.3826,8.9165,-0.6922,4.0233,0.118,0.0014,0.6933,-0.0722,1.0084,0.0271,-18.8,28.3,-16,345.54,4.05,-65.71,2,59.857,19.5196,-96.91534,4366.45,2.7,32.258064,07-nov,87.1,89,4.041,143591,2014-11-08 13:55:18:651
5.6886,0.2598,8.1487,6.174,0.2578,7.6148,-0.8505,0.2701,0.6667,0.1718,0.3123,-0.2398,-6.82,25.13,-27.06,330.2,1.54,-54.47,2,58.221,19.5196,-96.91534,4366.45,2.7,32.258064,07-nov,87.1,89,4.041,144091,2014-11-08 13:55:19:151
2.6264,2.5307,9.3518,3.7569,2.2674,8.7701,-1.48,-0.1269,0.3374,0.1718,0.1752,-0.0517,2.44,16.49,-34.18,326.04,-13.37,-23.19,2,62.596,19.519606,-96.915344,4366.13,0.9,32.258064,07-nov,87.1,89,4.041,144591,2014-11-08 13:55:19:651
2.0327,2.3224,9.1794,2.9335,2.204,9.0944,-0.7655,0.3805,0.0563,0.0449,0.2096,-0.0686,4.7,17.26,-34.24,325.59,-12.47,-20.88,2,60.537,19.519606,-96.915344,4366.13,0.9,32.258064,07-nov,87.1,89,4.041,145091,2014-11-08 13:55:20:151
2.387,3.0059,8.9447,2.6358,2.1462,9.1988,-1.2041,0.5138,-0.4839,0.3816,-0.1798,0.2364,5.02,17.52,-33.98,328.87,-12.42,-16.87,2,59.496,19.519608,-96.91534,4366.13,0.45,32.258064,07-nov,87.1,89,4.041,145591,2014-11-08 13:55:20:651
2.1847,2.7282,8.7412,2.6176,2.42,9.1358,-0.4329,0.3081,-0.3945,0.0795,0.1427,0.0922,5.62,16.08,-34.46,328.18,-13.89,-16.21,2,70.727,19.519608,-96.91534,4366.13,0.45,32.258064,07-nov,87.1,89,4.041,146091,2014-11-08 13:55:21:151
1.3886,3.4584,8.9399,1.6894,2.5718,9.3114,-0.6722,0.8471,-0.3656,0.0015,0.1593,0.0771,8.73,15.46,-34.65,326.12,-15.25,-10.95,2,65.473,19.519608,-96.91533,4365.81,0.45,32.258064,05-nov,87.1,89,4.041,146592,2014-11-08 13:55:21:652
-0.0658,4.3551,8.7676,0.7223,4.1723,8.8454,-0.8967,-0.1963,-0.65,0.4138,0.4196,-0.0398,19.21,4.78,-36.34,311.25,-18.95,-6.76,2,59.176,19.519608,-96.91533,4365.81,0.45,32.258064,05-nov,87.1,89,4.041,147092,2014-11-08 13:55:22:152
-2.7198,5.454,7.4089,-1.4718,4.5134,8.581,0.0244,0.6493,-0.8004,-0.5397,0.3108,0.2469,30.6,2.47,-32.25,309.94,-31.75,9.73,2,64.388,19.519608,-96.91533,4365.81,0.45,32.258064,07-nov,87.1,89,4.041,147592,2014-11-08 13:55:22:652
-2.9341,3.7062,8.436,-3.2903,3.8531,8.3963,-1.1099,0.4891,0.3323,-0.3508,0.5882,-0.2069,43.37,2.68,-21.51,297.93,-23.14,21.4,2,58.406,19.519608,-96.91533,4365.81,0.45,32.258064,07-nov,87.1,89,4.041,148092,2014-11-08 13:55:23:152
-4.0079,-1.5814,9.742,-3.4784,-0.5241,9.154,0.1206,-0.3082,-0.7348,0.8588,0.3067,-0.1527,36.43,27.85,-19.58,318.11,-2,21.63,2,56.277,19.519608,-96.91533,4365.81,0.45,32.258064,07-nov,87.1,89,4.041,148592,2014-11-08 13:55:23:652
-3.0203,1.6041,8.4072,-3.6816,1.3607,8.9869,0.8589,-0.4972,-0.141,-0.4416,-0.0915,0.7649,43.78,18.57,-24.08,308.07,-8.02,23.14,2,76.255,19.519608,-96.91533,4365.81,0.45,32.258064,07-nov,87.1,89,4.041,149092,2014-11-08 13:55:24:152
-3.0071,1.4748,8.8095,-2.3375,2.2703,9.2494,-0.1524,-0.8183,-1.4939,0.667,-0.3562,0.9139,50.67,3.82,-24.49,281.73,-6.4,19.17,2,68.308,19.519608,-96.91533,4365.81,0.45,32.258064,07-nov,87.1,89,4.041,149592,2014-11-08 13:55:24:652
-2.1069,1.5706,11.6669,-2.1167,1.8382,9.3974,0.0641,0.0434,1.7528,-0.6324,0.8649,-0.4816,43.59,-13.74,-31.9,266.68,-17.29,7.15,2,74.322,19.519608,-96.91533,4365.81,0.45,32.258064,07-nov,87.1,89,4.041,150092,2014-11-08 13:55:25:152
-3.5721,0.3292,8.8119,-3.079,1.8607,9.1229,1.0459,-1.3951,-2.6673,0.4436,0.0381,-0.4292,44.36,-10.64,-23.88,263.6,-10.94,18.65,2,69.418,19.519608,-96.91533,4365.81,0.45,32.258064,07-nov,87.1,89,4.041,150592,2014-11-08 13:55:25:652
-3.2346,0.9301,7.3035,-2.7714,1.0706,9.3458,-1.9142,-0.9215,2.6105,1.4146,-1.3148,-0.2894,42.77,-1.86,-23.01,272.89,-6.27,16.52,2,67.221,19.519608,-96.91533,4365.81,0.45,32.258064,07-nov,87.1,89,4.041,151092,2014-11-08 13:55:26:152
-4.6448,0.68,10.1107,-4.1303,-0.9043,8.8484,-0.4898,0.0034,2.773,0.1722,0.2242,-0.2877,40.82,8.25,-17.95,279.35,5.29,25.02,2,55.673,19.519644,-96.91532,4365.81,1.8,32.258064,07-nov,87.1,89,4.041,151593,2014-11-08 13:55:26:653
-1.7346,0.759,7.3322,-1.8027,2.0432,9.4205,0.4528,-2.713,-2.0174,-1.0428,-0.9203,-0.4614,30.9,2.12,-27.38,288.92,-12.03,10.83,2,55.408,19.519644,-96.91532,4365.81,1.8,32.258064,07-nov,87.1,89,4.041,152094,2014-11-08 13:55:27:154
-3.3507,0.3543,12.1997,-2.0173,4.3399,8.5596,-3.3973,0.9401,3.8695,1.9753,0.0039,1.2619,31.63,2.7,-25.84,285.61,-7.48,12.4,2,55.09,19.51966,-96.91531,4365.81,2.25,32.258064,07-oct,87.1,89,4.041,152594,2014-11-08 13:55:27:654
4.2988,9.6103,3.8762,2.3365,8.811,3.6163,0.5348,1.5033,0.629,0.203,1.1267,-0.5929,1.89,-43.95,9.93,183.4,-60.76,-38.47,2,73.857,19.51966,-96.91531,4365.81,2.25,32.258064,07-oct,87.1,89,4.041,153095,2014-11-08 13:55:28:155
1.0343,8.1762,3.9923,0.2528,8.7859,4.349,0.2299,-0.6074,0.7668,0.2845,-0.9376,-1.0274,13.62,-41.49,8.32,207.37,-63.63,-3.33,2,56.205,19.519669,-96.91531,4365.81,2.02,32.258064,08-oct,87.1,89,4.041,153595,2014-11-08 13:55:28:655
-3.9935,0.7362,7.8051,-2.8468,1.618,9.2438,-1.0367,-0.2592,-1.0187,-1.2311,0.6985,-0.4013,31.33,10.49,-20.97,302.05,-9.5,17.12,2,72.55,19.519669,-96.91531,4365.81,2.02,32.258064,08-oct,87.1,89,4.041,154095,2014-11-08 13:55:29:155
-0.5195,0.316,9.651,-1.976,0.2019,9.6034,1.5061,0.2214,-0.754,0.6792,0.3301,-0.4984,30.77,11.3,-19.94,293.37,5.65,11.44,2,67.33,19.51968,-96.91531,4366.13,2.47,32.258064,08-oct,87.1,89,4.041,154596,2014-11-08 13:55:29:656
-0.3759,-0.0024,8.4623,-0.7101,-0.0207,9.7809,0.3677,0.6177,0.0078,-0.1644,0.2816,-0.2088,24.04,15.12,-23.31,303.87,0.12,4.15,2,51.795,19.51968,-96.91531,4366.13,2.47,32.258064,08-oct,87.1,89,4.041,155096,2014-11-08 13:55:30:156
-0.0539,3.2453,7.0425,0.2733,3.4919,9.1598,-0.8024,-0.5377,-1.9553,0.4826,-0.1256,0.1274,25.37,-1.59,-26.27,278.29,-12.59,-0.47,2,55.657,19.51968,-96.91531,4366.13,2.47,32.258064,08-oct,87.1,89,4.041,155597,2014-11-08 13:55:30:657
-4.0199,2.6372,9.7767,-0.1759,2.9305,9.3569,-4.0914,0.1981,0.764,1.6117,1.6293,2.0636,22.47,5.51,-27.14,287.98,-14.17,-2.98,2,66.692,19.51968,-96.91531,4366.13,2.47,32.258064,08-oct,87.1,89,4.041,156098,2014-11-08 13:55:31:158
-0.1389,3.2657,10.4938,-0.9821,2.6424,9.3928,0.8432,0.6233,1.101,-0.2923,0.344,-0.2145,28.75,-21.8,-15.46,244.12,-20.27,7.02,2,67.938,19.51968,-96.91531,4366.13,2.47,32.258064,07-sep,87.1,89,4.041,156599,2014-11-08 13:55:31:659
-0.2346,3.4668,8.6491,-0.3919,1.3298,9.7082,0.1573,2.137,-1.0591,0.4762,0.0376,-0.7022,26.69,-16.96,-20.78,242.08,-7.79,2.31,2,71.196,19.51968,-96.91531,4366.13,2.47,32.258064,07-sep,87.1,89,4.041,157099,2014-11-08 13:55:32:159
-1.7777,-0.4729,7.9607,0.2356,1.1498,9.7362,-2.0133,-1.6227,-1.7754,-0.1669,-0.1293,-0.2759,27.1,-13.74,-22.86,248.5,-7.82,-1.12,2,67.377,19.51968,-96.91531,4366.13,2.47,32.258064,07-oct,87.1,89,4.041,157600,2014-11-08 13:55:32:660
-2.7701,-0.6333,12.1613,-2.211,0.83,9.518,-0.5591,-1.4632,2.6433,0.3547,1.0342,2.1763,28.6,-19.77,-19.45,244.29,-1.58,5.89,2,54.039,19.51968,-96.91531,4366.13,2.47,32.258064,07-oct,87.1,89,4.041,158100,2014-11-08 13:55:33:160
-3.0083,1.822,7.7309,-1.0609,0.8528,9.7117,-1.9474,0.9692,-1.9808,-0.6446,-0.2203,-0.404,10.4,-32.05,-18.98,192.27,-9.17,17.32,2,55.766,19.519688,-96.91532,4365.81,0.9,32.258064,08-oct,87.1,89,4.041,158600,2014-11-08 13:55:33:660
-0.1999,3.2453,9.1901,0.679,3.8225,9.0054,-0.5899,2.6762,-1.1094,-0.9457,-0.5124,-0.4999,18.42,-42.9,-11.08,207.64,-22.94,-4.31,2,68.443,19.519688,-96.91532,4365.81,0.9,32.258064,08-oct,87.1,89,4.041,159100,2014-11-08 13:55:34:160
0.0072,4.1061,10.8146,-0.339,3.3796,9.1997,0.9533,0.4687,0.3128,-0.8652,-0.1771,-0.9247,34.43,-17.43,-21.03,260.73,-27.19,-0.12,2,58.68,19.519688,-96.91532,4365.81,0.9,32.258064,08-oct,87.1,89,4.041,159600,2014-11-08 13:55:34:660
-1.0032,4.1515,8.2408,0.0469,4.1256,8.8965,-0.2755,0.0466,-0.6668,-0.5587,0.113,0.7412,28.28,-15.59,-24.74,261.79,-24.88,-0.3,2,53.862,19.519688,-96.91532,4365.81,0.9,32.258064,08-oct,87.1,89,4.041,160100,2014-11-08 13:55:35:160
0.5842,2.8754,7.3586,-0.0185,3.9011,8.9973,1.0303,-0.7663,-0.89,-0.0303,-0.3565,-0.2047,25.84,-17.05,-23.43,255.02,-22.52,-0.88,2,50.862,19.519684,-96.91533,4365.81,1.35,32.258064,08-nov,87.1,89,4.041,160600,2014-11-08 13:55:35:660
1.1277,4.2772,10.3932,0.7251,3.3618,9.1839,0.6769,0.2128,0.6178,-0.0102,0.3889,0.4894,23.56,-15.97,-23.8,253.85,-20.05,-4.51,2,50.599,19.519684,-96.91533,4365.81,1.35,32.258064,08-nov,87.1,89,4.041,161100,2014-11-08 13:55:36:160
0.814,4.0354,8.7879,0.7468,3.4219,9.1599,0.0672,0.6135,-0.372,0.0259,-0.0383,-0.153,22.73,-20.2,-17.95,241.42,-20.04,-4.04,2,54.547,19.519676,-96.91533,4365.81,2.47,32.258064,08-nov,87.1,89,4.041,161600,2014-11-08 13:55:36:660
0.905,3.401,8.0278,0.7268,3.8299,8.9985,0.1782,-0.429,-0.9708,0.1483,-0.0256,-0.3142,25.64,-16.34,-15.05,250.31,-22.99,-4.62,2,52.062,19.519676,-96.91533,4365.81,2.47,32.258064,08-nov,87.1,89,4.041,162100,2014-11-08 13:55:37:160
0.176,2.8826,10.6793,0.5579,2.8053,9.3803,-0.3819,0.0773,1.2991,-0.3865,0.4375,0.3525,24.06,-19.47,-14.84,240.03,-16.62,-3.4,2,53.411,19.519672,-96.91534,4365.48,2.25,32.258064,06-nov,87.1,89,4.041,162600,2014-11-08 13:55:37:660
0.6093,2.32,9.3817,0.4943,2.202,9.5434,0.115,0.118,-0.1618,0.2918,0.1737,-0.0769,21.44,-23.86,-16.49,227.4,-12.98,-2.97,2,51.55,19.519672,-96.91534,4365.48,2.25,32.258064,06-nov,87.1,89,4.041,163100,2014-11-08 13:55:38:160
-0.4968,3.705,8.6084,0.0503,4.0846,8.9154,-0.5471,-0.3796,-0.307,0.5895,0.7837,-0.0817,20.58,-26.56,-15.7,228.62,-20.25,-3.3,2,53.635,19.519667,-96.915344,4365.48,2.47,32.258064,08-oct,87.1,89,4.041,163600,2014-11-08 13:55:38:660
-0.1999,4.3515,9.7624,0.016,3.8484,9.02,-0.2159,0.5031,0.7424,-0.6939,-0.6612,0.7149,18.85,-30.13,-16.68,225.23,-22.64,1.58,2,62.612,19.519667,-96.915344,4365.48,2.47,32.258064,08-oct,87.1,89,4.041,164100,2014-11-08 13:55:39:160
1.1432,3.2669,10.4459,0.1487,2.6455,9.4419,0.9946,0.6214,1.004,-0.041,0.0739,-0.2611,12.29,-31.9,-20.91,206.5,-17.21,-0.43,2,58.229,19.519665,-96.91535,4365.16,2.25,32.258064,08-oct,87.1,89,4.041,164601,2014-11-08 13:55:39:661
-0.6823,2.9544,8.5605,-0.4057,2.8356,9.379,-0.2767,0.1188,-0.8185,-0.1508,-0.0351,-0.2972,19.92,-29.09,-22.88,219.79,-17.93,2.1,2,53.209,19.519665,-96.91535,4365.16,2.25,32.258064,08-oct,87.1,89,4.041,165101,2014-11-08 13:55:40:161
1.2139,0.7326,9.3075,0.1279,2.0068,9.5983,1.086,-1.2741,-0.2908,-0.1791,-0.3374,0.2354,16.17,-28.54,-27.44,215.53,-11.81,-0.76,2,55.922,19.51966,-96.91536,4364.84,2.02,32.258064,08-oct,87.1,89,4.041,165601,2014-11-08 13:55:40:661
0.1317,2.9963,7.8458,-0.6413,2.1397,9.5489,0.773,0.8566,-1.7031,0.548,0.02,0.079,13.25,-30.85,-26.67,202.73,-9.79,4.57,2,52.921,19.51966,-96.91536,4364.84,2.02,32.258064,08-oct,87.1,89,4.041,166101,2014-11-08 13:55:41:161
-0.5124,1.7885,10.5213,-0.8949,2.139,9.5286,0.3826,-0.3506,0.9927,0.2123,0.2371,-0.3103,15.7,-30.98,-23.88,208.51,-16.21,4.8,2,55.652,19.519651,-96.91537,4364.52,2.47,32.258064,07-nov,87.1,89,4.041,166601,2014-11-08 13:55:41:661
0.9481,3.1424,8.3881,-0.6429,3.397,9.177,1.591,-0.2546,-0.7889,-0.1225,-0.1549,-0.2894,14.62,-33.68,-19.23,207.85,-22.68,7.67,2,55.118,19.519651,-96.91537,4364.52,2.47,32.258064,07-nov,87.1,89,4.041,167102,2014-11-08 13:55:42:162
-0.7566,1.9764,10.0102,-0.4454,1.5663,9.6705,-0.3111,0.4101,0.3397,0.0405,0.4643,-0.0417,15.87,-27.08,-27.44,213.55,-9.19,2.64,2,58.974,19.519644,-96.91538,4363.87,3.15,32.258064,08-nov,87.1,89,4.041,167718,2014-11-08 13:55:42:778
1.9609,2.0602,8.9866,0.5388,2.588,9.4437,1.4221,-0.5278,-0.457,-0.0908,0.0795,-0.2955,10.57,-30.29,-24.18,208.46,-15.3,-3.27,2,54.146,19.519644,-96.91538,4363.87,3.15,32.258064,08-nov,87.1,89,4.041,168362,2014-11-08 13:55:43:422
-0.1544,2.9616,6.8151,-0.8851,2.4679,9.4497,0.7307,0.4938,-2.6346,-0.0878,-0.3184,-0.659,17.67,-26.39,-23.46,219.74,-14.58,5.35,2,57.508,19.51963,-96.9154,4363.23,3.15,32.258064,10-nov,87.1,89,4.041,168889,2014-11-08 13:55:43:949
0.3759,3.2609,8.9376,-0.1228,2.9633,9.3474,0.4986,0.2976,-0.4099,-0.0224,0.2415,-0.2252,19.43,-22.53,-25.97,234.52,-17.99,-1.4,2,58.837,19.519625,-96.915405,4362.26,2.47,32.258064,10-dic,87.1,89,4.041,169419,2014-11-08 13:55:44:479
-0.5555,1.2977,7.8135,0.5577,0.909,9.7485,-1.1131,0.3887,-1.935,-1.6649,-0.9252,-0.7266,18.8,-16.68,-30.64,235.35,-13.3,2.26,2,75.042,19.519625,-96.915405,4362.26,2.47,32.258064,10-dic,87.1,89,4.041,169961,2014-11-08 13:55:45:021
1.4174,0.9026,7.9811,0.3054,1.9784,9.6002,1.112,-1.0758,-1.6191,0.3557,-0.0971,-0.6592,19.88,-16.02,-29.46,237.77,-5.66,-1.62,2,64.462,19.519648,-96.91545,4361.94,2.02,32.258064,11-dic,87.1,89,4.041,170510,2014-11-08 13:55:45:570
-2.2984,1.8854,9.9982,-1.1609,2.0376,9.5221,-1.1375,-0.1522,0.4761,-0.0878,0.1313,0.1691,24.85,-15.42,-25.77,248.54,-12.1,6.05,2,64.474,19.519648,-96.91545,4361.94,2.02,32.258064,11-dic,87.3,89,4.063,171060,2014-11-08 13:55:46:120
-0.0036,2.8563,10.8218,-0.0639,2.0794,9.5834,0.0603,0.7769,1.2383,0.1644,-0.1298,-0.2037,21.87,-15.55,-29.09,242.92,-9.23,2.4,2,54.644,19.519644,-96.91546,4361.29,2.47,32.258064,11-dic,87.3,89,4.063,171560,2014-11-08 13:55:46:620
3.9061,1.1851,11.0744,1.6061,0.3399,9.6683,2.3,0.8452,1.4061,0.0581,-0.5773,-0.4465,19.62,-9.45,-34.61,258.76,-7.89,-1.94,2,60.101,19.519644,-96.91546,4361.29,2.47,32.258064,11-dic,87.3,89,4.063,172095,2014-11-08 13:55:47:155
0.5423,2.0171,9.2428,1.6505,1.884,9.4814,-1.1082,0.1331,-0.2386,-0.5753,0.799,0.5204,17.02,-15.46,-35.21,249.17,-11.08,-9.88,2,52.769,19.519638,-96.915474,4360,2.47,32.258064,11-dic,87.3,89,4.063,172638,2014-11-08 13:55:47:698
1.3994,0.917,7.0042,1.4402,2.4645,9.382,-0.0408,-1.5475,-2.3778,0.3674,0.6478,-0.2103,17.63,-17.2,-35.49,247.05,-12.59,-7.83,2,68.802,19.519638,-96.915474,4360,2.47,32.258064,11-dic,87.3,89,4.063,173178,2014-11-08 13:55:48:238
0.7949,0.2933,9.4367,2.2022,1.6703,9.4091,-1.4073,-1.377,0.0277,0.9593,0.2352,1.439,8.71,-22.36,-37.31,241.13,-6.79,-15.3,2,64.302,19.519636,-96.91548,4359.68,2.25,32.258064,10-dic,87.3,89,4.063,173716,2014-11-08 13:55:48:776
1.4856,2.3224,9.4391,1.669,1.3208,9.5729,0.2403,0.4282,-1.2279,0.1815,0.1169,0.3623,-1.74,-27.87,-34.2,189.47,-7.74,-9.89,2,59.28,19.519636,-96.91548,4359.68,2.25,32.258064,10-dic,87.3,89,4.063,174235,2014-11-08 13:55:49:295
0.6907,1.4054,9.2548,1.3894,0.9169,9.6643,-0.4832,0.9949,-0.1091,0.1474,0.424,0.8576,-14.36,-23.33,-34.82,155.49,-5.36,-8.18,2,59.42,19.519636,-96.91549,4358.71,1.8,32.258064,11-dic,87.3,89,4.063,174750,2014-11-08 13:55:49:810
1.9968,1.8387,8.6898,0.6516,0.6875,9.7608,0.1839,0.8747,-0.445,-1.1989,0.1154,0.1061,-21.59,-15.63,-35.72,119.49,-11.21,-3.61,2,58.602,19.519636,-96.91549,4358.71,1.8,32.258064,11-dic,87.3,89,4.063,175294,2014-11-08 13:55:50:354
1.5514,1.1001,11.0445,1.2229,2.1564,9.4881,0.8696,-1.4082,2.423,-0.1693,-0.4299,-0.3006,-20.46,-21.72,-32.57,127.75,-6.31,-4.96,2,62.616,19.519636,-96.915504,4358.39,0.67,32.258064,11-dic,87.3,89,4.063,175822,2014-11-08 13:55:50:882
0.2598,1.743,9.3937,2.1273,1.257,9.4902,-0.692,-1.3372,3.7114,-0.6992,-2.4642,0.8556,-22.75,-19.27,-32.52,118.93,-11.19,-1.95,2,58.264,19.51964,-96.915504,4358.06,1.13,32.258064,11-dic,87.3,89,4.063,176364,2014-11-08 13:55:51:424
5.1475,-0.8428,7.9715,3.4588,0.9525,9.1269,1.6887,-1.7952,-1.1554,-0.6334,-3.2383,-1.1601,-28.97,-15.44,-27.6,119.86,-4.7,-11.51,2,62.021,19.51964,-96.915504,4358.06,1.13,32.258064,11-dic,87.3,89,4.063,176865,2014-11-08 13:55:51:925
4.859,2.083,4.6017,6.0469,0.8574,7.6727,-1.1878,1.2255,-3.0711,0.7305,0.6404,-0.0468,-31.05,-21.33,-18.85,144.94,-5.02,-38.24,2,63.716,19.51964,-96.915504,4358.06,1.13,32.258064,nov-13,87.3,89,4.063,177629,2014-11-08 13:55:52:689
7.337,0.8847,9.9395,6.0206,1.6602,7.5609,1.9035,-0.938,2.3166,-0.6412,0.4528,1.063,-36.04,-16.42,-11.73,116.65,-9.75,-38.53,2,56.053,19.519636,-96.91551,4357.1,1.58,32.258064,nov-13,87.3,89,4.063,178262,2014-11-08 13:55:53:322
13.69,0.4166,7.7991,8.184,0.328,5.393,1.1565,0.28,0.6482,0.1664,0.103,0.0063,-35.55,-6.92,5,102.3,-2.98,-52.19,2,59.8,19.519623,-96.91552,4355.81,3.82,32.258064,dic-14,87.3,89,4.063,178796,2014-11-08 13:55:53:856
6.0813,1.1576,8.7915,5.0382,-0.2451,8.4099,1.0431,1.4026,0.3816,0.0507,1.0001,0.4096,-31.28,-15.46,-6.52,127.77,-1.3,-41.45,2,61.607,19.519623,-96.91552,4355.81,3.82,32.258064,dic-14,87.3,89,4.063,179328,2014-11-08 13:55:54:388
5.1415,0.267,12.9299,3.7958,0.1627,9.0408,1.3458,0.1042,3.8891,-0.3767,-0.0859,0.1864,-31.22,-13.55,-9.16,114.14,-2.97,-28.92,2,62.143,19.519615,-96.91552,4355.16,3.15,32.258064,dic-14,87.3,89,4.063,179881,2014-11-08 13:55:54:941
2.6157,0.334,11.2791,2.7464,1.2726,9.3278,-0.1307,-0.9386,1.9513,-0.6085,0.171,0.1615,-24.53,-23.67,-13.49,134.43,-11.34,-17.23,2,58.992,19.519608,-96.91553,4354.19,3.38,32.258064,oct-14,87.3,89,4.063,180407,2014-11-08 13:55:55:467
6.6631,-1.0343,10.9702,5.2762,-0.7225,8.2347,1.3869,-0.3118,2.7355,0.2035,0.0361,0.8693,-32.03,-10.38,-10.61,119.58,4.23,-32.65,2,63.489,19.519608,-96.91553,4354.19,3.38,32.258064,oct-14,87.3,89,4.063,180951,2014-11-08 13:55:56:011
4.9356,-1.9513,11.7974,5.0654,0.8938,8.3494,-0.1298,-2.8451,3.448,-1.0394,0.1088,0.3745,-29.63,-15.8,-10.51,124.4,-5.23,-31.24,2,63.076,19.5196,-96.91552,4353.23,3.6,16.129032,dic-14,87.3,89,4.063,181487,2014-11-08 13:55:56:547
7.021,-1.2785,12.3732,4.4448,-0.7641,8.7081,2.5762,-0.5144,3.6651,-0.5431,-0.0993,0.4001,-31.13,-5.64,-15.12,114.44,-1.68,-26.24,2,58.967,19.5196,-96.91552,4353.23,3.6,16.129032,dic-14,87.3,89,4.063,182010,2014-11-08 13:55:57:070
4.1551,-2.9999,11.5005,3.5833,-1.8003,8.9493,0.5719,-1.1996,2.5513,-0.4855,1.2201,0.9425,-31.15,-5.4,-15.18,112.31,4.12,-33.91,2,60.705,19.519587,-96.91552,4352.58,4.73,16.129032,nov-14,87.3,89,4.063,182578,2014-11-08 13:55:57:638
4.5334,-3.0131,14.1617,2.3296,-1.5775,9.3944,2.2039,-1.4356,4.7673,-0.5128,1.8089,0.4611,-27.83,3,-22.75,100.85,7.54,-16.19,2,57.342,19.519587,-96.91552,4352.58,4.73,16.129032,nov-14,87.3,89,4.063,183176,2014-11-08 13:55:58:236
-0.8583,0.498,10.173,0.2331,-1.738,9.6486,-1.0915,2.236,0.5244,-0.9989,0.6534,1.0313,-23.24,-0.26,-30.04,106.09,11.98,-1.74,2,57.327,19.519571,-96.91552,4351.61,4.28,16.129032,nov-14,87.3,89,4.063,183776,2014-11-08 13:55:58:836
0.6393,2.6971,5.7497,1.4326,0.117,9.7007,0.7677,0.1129,7.3951,0.1683,0.4355,0.0263,-25.11,8.08,-27.06,68.09,-0.68,-8.4,2,69.065,19.519571,-96.91552,4351.61,4.28,16.129032,nov-14,87.3,89,4.063,184306,2014-11-08 13:55:59:366
-0.4908,-0.5782,7.5788,-0.613,0.4367,9.7777,0.1222,-1.0149,-2.1989,1.2321,-1.1321,-1.4095,-17.43,14.49,-30.72,50.99,-2.55,3.59,2,58.152,19.519556,-96.91553,4350.97,5.18,32.258064,nov-14,87.3,89,4.063,184856,2014-11-08 13:55:59:916
0.8284,1.2689,8.3773,-0.0026,1.0553,9.7497,0.831,0.2136,-1.3724,0.4426,-0.2289,0.9625,-20.93,12.52,-29.14,55.94,-3.93,2.09,2,57.443,19.51954,-96.91554,4350.97,5.4,32.258064,oct-14,87.3,89,4.063,185431,2014-11-08 13:56:00:491
1.7478,-3.2669,13.5021,0.6043,-0.5574,9.7721,1.1435,-2.7095,3.73,-0.71,0.5136,-1.7201,-24.01,-2.53,-27.89,101.86,3.26,-3.54,2,65.386,19.51954,-96.91554,4350.97,5.4,32.258064,oct-14,87.3,89,4.063,185988,2014-11-08 13:56:01:048
-1.2402,1.5179,10.5596,0.3324,1.8705,9.6209,-1.5726,-0.3526,0.9388,0.1152,-0.0952,-0.1725,-12.5,-26.59,-21.66,147.32,-15.2,2.97,2,69.146,19.519526,-96.91555,4350.65,5.85,32.258064,oct-14,87.3,89,4.063,186538,2014-11-08 13:56:01:598
0.7913,1.6364,9.0142,0.442,2.1527,9.5572,0.3492,-0.5163,-0.5431,-0.0288,-0.0749,0.1979,-13.47,-26.52,-20.24,149.6,-13.71,-1.22,2,64.395,19.519526,-96.91555,4350.65,5.85,32.258064,oct-14,87.3,89,4.063,187087,2014-11-08 13:56:02:147
-0.6524,1.8268,9.8414,0.5825,1.5048,9.673,-1.3009,0.9147,0.2054,0.1,-0.537,0.3794,-13.55,-25.86,-21.48,152.37,-11.15,-3.47,2,70.049,19.519527,-96.91557,4351.29,4.05,32.258064,dic-15,87.3,89,4.063,187600,2014-11-08 13:56:02:660
0.4345,2.4122,9.2213,0.6019,1.9539,9.5912,-0.7393,0.7912,0.552,0.4006,0.9486,1.3926,-28.22,-4.27,-22.45,88.84,-10.01,-7.69,2,54.018,19.519527,-96.91557,4351.29,4.05,32.258064,dic-15,87.3,89,4.063,188129,2014-11-08 13:56:03:189
2.0973,3.7002,8.5042,0.9539,3.951,8.9247,1.1434,-0.2507,-0.4205,-0.2718,-0.3772,0.9074,-23.29,-7.01,-28.94,66.21,-32.49,-1.07,2,58.307,19.519527,-96.91557,4351.29,4.05,32.258064,nov-15,87.3,89,4.063,188649,2014-11-08 13:56:03:709
0.5052,5.4947,5.5126,0.2987,6.86,7.0015,0.2065,-1.3653,-1.4889,1.6874,-1.4634,0.5482,-18.42,-3.95,-32.96,47.58,-38.08,1.06,2,55.561,19.519527,-96.91557,4351.29,4.05,32.258064,nov-15,87.3,89,4.063,189332,2014-11-08 13:56:04:392
-1.7418,7.3837,6.669,-0.1761,7.1064,6.7556,-1.5657,0.2773,-0.0866,-0.9159,-0.3594,-0.2933,-18.16,-11.24,-31.33,57.15,-43.84,3.35,2,65.721,19.519535,-96.91557,4353.55,0.45,16.129032,dic-15,87.3,89,4.063,189996,2014-11-08 13:56:05:056
0.6249,8.6143,5.3834,-1.2522,8.1819,5.2592,1.8771,0.4324,0.1242,0.589,0.4545,0.3203,-8.47,-10.94,-35.79,36.72,-56.55,13.39,2,57.683,19.519527,-96.915565,4354.19,2.02,16.129032,dic-15,87.3,89,4.063,190786,2014-11-08 13:56:05:846
-0.2322,1.5419,11.8046,-0.6845,1.6062,9.65,0.4522,-0.0643,2.1546,1.1062,0.518,-0.1635,-20.54,6.2,-29.33,65.64,-9.43,4.06,2,53.82,19.519527,-96.915565,4354.19,2.02,16.129032,dic-15,87.3,89,4.063,191399,2014-11-08 13:56:06:459
-0.7111,0.7266,9.4367,-1.8194,2.028,9.4206,1.1083,-1.3014,0.0162,-0.7056,0.3477,-1.4139,-17.88,-6.99,-31.97,80.38,-22.37,11.6,2,71.757,19.519526,-96.91556,4354.84,2.25,16.129032,dic-15,87.3,89,4.063,191970,2014-11-08 13:56:07:030
0.3364,-0.8033,8.0266,-0.1866,1.5767,9.6773,0.523,-2.3799,-1.6507,0.6143,-0.587,0.1808,-20.37,-6.67,-30.68,100.44,-4.93,10.61,2,67.088,19.519526,-96.91556,4354.84,2.25,16.129032,dic-15,87.3,89,4.063,192526,2014-11-08 13:56:07:586
0.5327,0.5986,8.7484,-1.8559,2.4632,9.309,2.3886,-1.8647,-0.5606,0.8364,0.1205,-0.7541,-14.21,-21.16,-29.29,123.37,-12.2,8.81,2,74.123,19.519526,-96.91556,4354.84,2.25,16.129032,nov-15,87.3,89,4.063,193040,2014-11-08 13:56:08:100
0.8763,1.1049,11.7304,0.352,0.7669,9.7703,0.5243,0.3381,1.9601,-0.8525,0.5734,0.2833,-15.95,-22.56,-27.3,142.71,-7.76,0.76,2,69.325,19.519526,-96.91556,4354.84,2.25,16.129032,dic-15,87.3,89,4.063,193614,2014-11-08 13:56:08:674
-0.6488,-2.1775,11.2863,0.1489,-2.4174,9.5029,-0.7977,0.2398,1.7834,0.3162,0.3623,-2.4688,-12.48,-14.02,-34.93,152.76,14.27,-0.9,2,69.441,19.519526,-96.91556,4354.84,2.25,16.129032,dic-15,87.3,89,4.063,194172,2014-11-08 13:56:09:232
-2.1117,-0.8535,8.8753,-3.1191,0.9805,9.2455,1.0074,-1.8341,-0.3702,-0.5153,-1.002,1.3394,-5.51,-24.19,-30.98,156.83,-4.86,19.6,2,67.657,19.519533,-96.91556,4356.45,0.67,16.129032,nov-15,87.3,89,4.063,194747,2014-11-08 13:56:09:807
0.8595,2.6971,7.8913,-0.1091,2.3435,9.5219,0.9686,0.3536,-1.6306,-0.2079,-1.2892,0.2911,-15.4,-20.31,-29.2,126.91,-11.34,8.66,2,68.907,19.519533,-96.91556,4356.45,0.67,16.129032,nov-15,87.3,89,4.063,195306,2014-11-08 13:56:10:366
-1.1588,3.8607,8.989,-0.9762,4.7411,8.5287,-0.1826,-0.8804,0.4603,0.5045,0.5282,-0.3745,-12.48,-31.47,-18.12,139.38,-29.09,5,2,57.286,19.51954,-96.91556,4357.1,0.67,16.129032,14 / 15,87.3,89,4.063,195861,2014-11-08 13:56:10:921
-1.6843,3.9768,9.013,-1.6275,3.3196,9.0831,-0.0568,0.6572,-0.0701,0.2601,0.1449,0.4872,-12.65,-26.26,-26.56,132.77,-19.95,9.84,2,54.612,19.51954,-96.91556,4357.1,0.67,16.129032,14 / 15,87.3,89,4.063,196454,2014-11-08 13:56:11:514
0.0455,5.9819,10.7081,0.0669,3.9999,8.9536,-0.0214,1.982,1.7545,0.4987,-0.4838,-0.922,-19.94,-22.47,-24.63,117.24,-22.94,2.79,2,55.998,19.51954,-96.91556,4357.1,0.67,16.129032,14 / 15,87.3,89,4.063,197071,2014-11-08 13:56:12:131
0.3735,5.3151,8.2815,0.0582,4.6435,8.6374,0.3153,0.6716,-0.3559,0.7646,0.0285,-0.0149,-15.29,-30.4,-18.87,142.44,-25.44,-1.77,2,55.816,19.51954,-96.91556,4357.1,0.67,16.129032,13 / 16,87.3,89,4.063,197710,2014-11-08 13:56:12:770
0.4381,4.6639,8.2911,0.6547,4.3613,8.759,-0.2166,0.3026,-0.4679,0.0112,0.0854,-0.1069,-20.26,-26.09,-20.37,126.7,-26.41,-4.27,2,56.36,19.51954,-96.91556,4357.1,0.67,16.129032,13 / 16,87.3,89,4.063,198210,2014-11-08 13:56:13:270
0.5962,5.0099,6.8594,-0.4616,5.674,7.9851,1.0578,-0.6642,-1.1258,0.6231,0.0124,-0.3221,-15.57,-30.94,-18.01,132.92,-30.85,1.35,2,53.579,19.51954,-96.91556,4357.1,0.67,16.129032,14 / 15,87.3,89,4.063,198710,2014-11-08 13:56:13:770
-1.2546,7.8949,7.4771,-1.6894,6.781,6.88,0.93,1.216,0.6575,0.4802,0.7261,0.1237,-11.9,-33.83,-14.6,137.23,-43.75,13.8,2,56.049,19.51954,-96.91556,4357.1,0.67,16.129032,14 / 15,87.3,89,4.063,199210,2014-11-08 13:56:14:270
-2.9473,6.9803,6.5601,-1.7527,6.7987,6.8466,-1.3875,1.2899,-0.9017,-0.8593,-0.3445,0.3325,-12.13,-34.22,-12.48,141.96,-46.84,14.58,2,66.631,19.519316,-96.91512,,,406.45163,13 / 15,87.3,89,4.063,199710,2014-11-08 13:56:14:770
-0.8643,5.5019,8.9423,-0.605,6.0694,7.679,0.5012,-1.0924,-1.4001,-0.3445,1.9753,0.7644,-21.25,-26.26,-19.42,114.17,-37.41,3.67,2,57.088,19.519316,-96.91512,,,406.45163,13 / 15,87.3,89,4.063,200210,2014-11-08 13:56:15:270
5.1308,4.0378,10.5955,2.9196,4.0607,8.4355,3.0228,-0.5202,2.7005,-1.4004,-1.4317,1.2785,-29.39,-3.69,-24.44,63.67,-24.46,-19.09,2,55.262,19.519316,-96.91512,,,406.45163,13 / 15,87.3,89,4.063,200711,2014-11-08 13:56:15:771
8.1965,0.2717,1.5455,9.337,0.1736,2.9935,-0.132,0.1365,-1.5133,-0.2127,-1.3021,0.1239,-30.19,12.63,7.72,57.12,-2.41,-60.99,2,54.321,19.519316,-96.91512,,,406.45163,13 / 15,87.3,89,4.041,201211,2014-11-08 13:56:16:271
9.2979,-1.2127,2.5678,9.3489,-0.2124,2.9536,-0.4225,-0.5235,-0.1304,0.6065,0.5697,-0.0446,-27.81,10.85,14.28,61.78,1.64,-78.82,2,54.953,19.519548,-96.91556,4371.94,1.58,16.129032,15 / 15,87.3,89,4.041,201711,2014-11-08 13:56:16:771
8.8406,-0.431,3.8966,8.5818,0.2718,4.7381,-0.4932,-0.9238,-1.7313,0.0215,0.2315,-0.0573,-32.08,11.75,2.94,54.87,-1.59,-61.1,2,55.097,19.519548,-96.91556,4371.94,1.58,16.129032,15 / 15,87.3,89,4.041,202211,2014-11-08 13:56:17:271
5.606,2.2434,9.505,4.6675,1.0144,8.5648,0.299,0.0357,1.5186,0.4299,1.8123,-0.2618,-32.29,9.15,-14.69,59.95,-1.42,-39.91,2,58.558,19.519548,-96.91556,4371.94,1.58,16.129032,14 / 15,87.3,89,4.041,202712,2014-11-08 13:56:17:772
3.0071,1.5107,10.2508,4.0498,1.832,8.7415,-2.4852,-1.6171,-1.8607,0.1625,-1.247,-0.3945,-31.39,3.39,-21.44,65.14,-10.77,-24.86,2,56.844,19.519548,-96.91556,4371.94,1.58,16.129032,14 / 15,87.3,89,4.041,203212,2014-11-08 13:56:18:272
3.2741,2.1452,10.7895,2.9117,1.9453,9.1602,0.8528,-0.2169,0.9999,-0.2152,0.4855,0.3399,-28.92,3.9,-26.29,62.13,-10.46,-18.76,2,56.697,19.519543,-96.91556,4374.84,0.9,16.129032,15 / 15,87.3,89,4.041,203712,2014-11-08 13:56:18:772
3.6248,0.8009,9.2488,3.4536,0.9187,9.1323,0.5213,-0.4662,0.0105,0.0337,-0.1086,-0.5004,-29.46,9.46,-24.04,57.17,-5.38,-20.72,2,56.462,19.519543,-96.91556,4374.84,0.9,16.129032,15 / 15,87.3,89,4.041,204213,2014-11-08 13:56:19:273
7.5082,0.431,7.4687,7.454,0.4721,6.355,0.3116,-0.7493,2.6918,0.2142,-1.5898,-0.2925,-35.33,4.59,-11.49,74.58,-1.87,-36.42,2,72.522,19.519543,-96.91556,4374.84,0.9,16.129032,16 / 16,87.3,89,4.041,204714,2014-11-08 13:56:19:774
8.26,0.0443,1.7178,9.7189,-0.4928,1.2128,-0.8502,0.1216,-0.5184,0.1264,-0.465,-0.079,-27.89,9.95,17.41,66.85,2.88,-82.89,2,72.944,19.519543,-96.91556,4374.84,0.9,16.129032,16 / 16,87.3,89,4.041,205216,2014-11-08 13:56:20:276
9.9958,-0.9301,-0.1628,9.7883,-0.3663,0.4754,-0.3775,-0.2006,-0.3695,-0.2342,-0.3091,-0.2445,-26.03,7.44,20.76,74.75,2.14,-87.22,2,66.226,19.519543,-96.91556,4374.84,0.9,16.129032,16 / 16,87.3,89,4.041,205716,2014-11-08 13:56:20:776
9.7432,-0.3292,-0.4513,9.7982,-0.3596,0.1894,-0.0871,0.0305,-0.5976,-0.2625,-0.0573,0.0617,-25.41,6.22,21.78,77.23,2.1,-88.89,2,53.889,19.519543,-96.91556,4374.84,0.9,16.129032,16 / 16,87.3,89,4.041,206216,2014-11-08 13:56:21:276
9.6702,-0.6201,-0.8918,9.7802,-0.5282,-0.4885,-0.1289,-0.3383,-0.8177,0.0464,0.071,0.0051,-23.95,6.24,23.48,77.97,3.09,-92.86,2,53.684,19.519543,-96.91556,4374.84,0.9,16.129032,14 / 16,87.3,89,4.041,206717,2014-11-08 13:56:21:777
9.5385,-0.668,-1.3024,9.756,-0.3954,-0.9134,-0.2146,-0.28,-0.355,0.221,-0.0456,-0.0451,-22.99,6.84,23.8,77.42,2.46,-94.61,2,53.768,19.519543,-96.91556,4374.84,0.9,16.129032,14 / 16,87.3,89,4.041,207218,2014-11-08 13:56:22:278
9.6798,-0.1293,-1.3455,9.7351,-0.1877,-1.1679,-0.0583,0.108,-0.2122,-0.0615,0.0015,-0.0956,-22.73,7.74,24.01,70.41,1.1,-96.84,2,54.707,19.519543,-96.91556,4374.84,0.9,16.129032,15 / 16,87.3,89,4.041,207720,2014-11-08 13:56:22:780
9.8282,-0.3591,-1.3838,9.6837,-0.4017,-1.4949,0.153,0.0268,0.169,0.122,-0.0544,0.0439,-22.19,8.45,24.33,70.37,1.43,-98.09,2,53.986,19.519543,-96.91556,4374.84,0.9,16.129032,15 / 16,87.3,89,4.041,208220,2014-11-08 13:56:23:280
9.651,-0.3448,-1.6125,9.6569,-0.3738,-1.6656,0.0138,-0.0101,-0.021,-0.0712,-0.0486,-0.1098,-21.55,7.89,24.66,71.47,2.18,-99.79,2,54.41,19.519543,-96.91556,4374.84,0.9,16.129032,14 / 16,87.3,89,4.041,208720,2014-11-08 13:56:23:780
9.6115,-0.4597,-1.567,9.6453,-0.3699,-1.7327,0.048,0.2137,0.1105,-0.0229,-0.0466,0.0156,-22.04,7.29,24.94,73.43,1.8,-100.07,2,54.155,19.519543,-96.91556,4374.84,0.9,16.129032,14 / 16,87.3,89,4.041,209220,2014-11-08 13:56:24:280
9.4571,-0.328,-1.6759,9.6398,-0.411,-1.754,-0.1772,0.0885,0.1064,0.2064,-0.0129,-0.0517,-21.95,8.21,24.23,70.66,2.4,-100.31,2,54.57,19.519543,-96.91556,4374.84,0.9,16.129032,15 / 16,87.3,89,4.041,209722,2014-11-08 13:56:24:782
9.6283,-0.1963,-1.421,9.6498,-0.4232,-1.6951,-0.0216,0.2153,0.2764,-0.0029,0.0303,0.0171,-22.25,10.48,23.26,62.35,2.45,-99.87,2,54.618,19.519543,-96.91556,4374.84,0.9,16.129032,15 / 16,87.3,89,4.041,210222,2014-11-08 13:56:25:282
9.5696,-0.0251,-1.6807,9.6286,-0.2904,-1.8373,-0.0582,0.2196,0.1675,0.0503,0.0486,0.0747,-21.46,9,24.34,66.58,1.22,-100.73,2,53.731,19.519543,-96.91556,4374.84,0.9,16.129032,15 / 16,87.3,89,4.041,210722,2014-11-08 13:56:25:782
9.6223,-0.2382,-1.7968,9.6116,-0.315,-1.9206,0.0144,0.0641,0.1444,0.0444,5.00E-04,-0.0281,-21.5,8.55,24.44,67.15,1.84,-101.3,2,55.013,19.519543,-96.91556,4374.84,0.9,16.129032,15 / 16,87.3,89,4.041,211222,2014-11-08 13:56:26:282
9.7576,-0.1041,-1.6771,9.6105,-0.2691,-1.9328,0.0783,0.0721,0.3135,0.0717,0.0244,-0.0334,-21.57,8.71,24.33,66.49,1.45,-101.47,2,60.017,19.519543,-96.91556,4374.84,0.9,16.129032,15 / 16,87.3,89,4.041,211722,2014-11-08 13:56:26:782
9.7217,-0.0563,-1.476,9.6208,-0.2876,-1.8781,-0.0032,-0.0975,0.4484,-0.001,-0.0088,-0.0481,-21.96,8.88,24.33,67.9,1.66,-101.17,2,61.467,19.519543,-96.91556,4374.84,0.9,16.129032,15 / 16,87.3,89,4.041,212222,2014-11-08 13:56:27:282
9.8114,-0.1879,-1.6197,9.6242,-0.293,-1.8599,0.1872,0.105,0.2403,0.021,0.0483,-0.0132,-22.15,8.86,24.06,67.04,1.71,-100.94,2,58.232,19.519543,-96.91556,4374.84,0.9,16.129032,15 / 16,87.3,89,4.041,212728,2014-11-08 13:56:27:788
9.5768,-0.2203,-1.3838,9.6213,-0.2221,-1.8845,-0.0445,0.0018,0.5006,0.0425,-0.0178,-0.0244,-21.78,8.62,24.14,66.49,1.3,-101.08,2,57.39,19.519543,-96.91556,4374.84,0.9,16.129032,15 / 16,87.3,89,4.041,213228,2014-11-08 13:56:28:288
9.4248,-0.0862,-1.8411,9.618,-0.2547,-1.8973,-0.1932,0.1685,0.0562,-0.0156,0.0383,0.0232,-21.46,9.33,24.27,66.82,1.49,-101.16,2,63.937,19.519543,-96.91556,4374.84,0.9,16.129032,14 / 16,87.3,89,4.041,213730,2014-11-08 13:56:28:790
9.6474,-0.2095,-1.585,9.619,-0.2801,-1.8884,0.0284,0.0706,0.3034,0.0224,0.0237,-0.0207,-21.44,9.2,24.21,66.97,1.65,-101.24,2,67.697,19.519543,-96.91556,4374.84,0.9,16.129032,14 / 16,87.3,89,4.041,214231,2014-11-08 13:56:29:291
9.7145,-0.2179,-1.6077,9.6183,-0.314,-1.8866,0.0961,0.0961,0.2789,-0.0171,0.0224,-0.0176,-21.31,9.48,24.76,67.47,1.97,-100.89,2,69.683,19.519543,-96.91556,4374.84,0.9,16.129032,13 / 15,87.3,89,4.041,214732,2014-11-08 13:56:29:792
9.6546,-0.4405,-1.658,9.6105,-0.323,-1.9248,0.0441,-0.1175,0.2668,-0.0054,0.0144,-0.0059,-21.08,9.18,24.81,68.2,1.89,-101.33,2,60.686,19.519543,-96.91556,4374.84,0.9,16.129032,13 / 15,87.3,89,4.041,215232,2014-11-08 13:56:30:292
8.5892,-0.8511,1.1696,9.8018,-0.3032,0.0504,-1.2126,-0.548,1.1191,-0.7895,1.0276,-0.0029,-26.18,3.05,21.33,84.06,1.77,-89.71,2,56.231,19.519543,-96.91556,4374.84,0.9,16.129032,14 / 14,87.3,89,4.041,215732,2014-11-08 13:56:30:792
7.9739,2.1404,5.5534,8.6403,0.823,4.565,-0.5981,0.1346,0.9944,-0.5211,0.5912,-0.7624,-34.09,-12.46,1.16,111.54,-1.63,-67.41,2,56.791,19.519543,-96.91556,4374.84,0.9,16.129032,14 / 14,87.3,89,4.041,216232,2014-11-08 13:56:31:292
4.7501,0.8571,8.9603,4.7468,1.2569,8.4887,-0.3199,-0.9828,0.1184,0.1508,0.1857,-0.9064,-28.28,-18.8,-20.63,140.86,-4.82,-30.99,2,55.185,19.519543,-96.91556,4374.84,0.9,16.129032,14 / 15,87.3,89,4.041,216732,2014-11-08 13:56:31:792
2.4026,4.3108,9.2057,3.8767,3.3343,8.368,-1.0061,-0.0686,0.1876,-0.0473,0.2879,-0.8822,-16.92,-31.3,-18.2,159.63,-19.88,-24.86,2,55.85,19.519543,-96.91556,4374.84,0.9,16.129032,14 / 15,87.3,89,4.041,217244,2014-11-08 13:56:32:304
-2.6157,6.1591,8.351,-1.2309,5.9808,7.6736,-1.3847,0.1783,0.6773,-0.1766,0.6768,-2.2834,7.38,-36.99,-11.88,185.82,-32.22,-15.43,2,54.615,19.519543,-96.91556,4374.84,0.9,16.129032,15 / 16,87.3,89,4.041,217744,2014-11-08 13:56:32:804
-4.3299,4.7094,7.3275,-3.9479,5.3183,7.2319,-0.382,-0.6089,0.0956,-0.1054,0.0886,-0.5616,32.48,-21.76,-8.92,258.36,-34.91,27.67,2,54.739,19.519543,-96.91556,4374.84,0.9,16.129032,15 / 16,87.3,89,4.041,218244,2014-11-08 13:56:33:304
-1.0092,4.4819,7.6411,-1.5388,5.0787,8.2468,0.5296,-0.5967,-0.6057,0.0044,-0.7637,0.2181,29.84,-16.1,-22.86,271.98,-31.19,10.57,2,54.528,19.519543,-96.91556,4374.84,0.9,16.129032,13 / 16,87.3,89,4.041,218745,2014-11-08 13:56:33:805
1.0989,3.6404,8.588,0.253,4.0642,8.9213,0.846,-0.4238,-0.3333,0.2406,0.2776,0.0608,24.83,-9.76,-32.42,281.33,-24.8,-0.82,2,68.279,19.519543,-96.91556,4374.84,0.9,16.129032,13 / 16,87.3,89,4.041,219246,2014-11-08 13:56:34:306
0.2897,5.1966,7.1419,0.1196,5.3386,8.2253,0.1701,-0.142,-1.0834,0.1239,0.0237,0.3867,25.6,-16.55,-28.22,271.68,-32.98,-0.83,2,55.188,19.519543,-96.91556,4374.84,0.9,16.129032,14 / 16,87.3,89,4.041,219747,2014-11-08 13:56:34:807
-0.2466,4.5406,8.74,0.5507,4.66,8.6111,-0.7973,-0.1194,0.1289,-0.2289,0.1383,1.0996,22.28,-22.58,-26.5,250.04,-28.37,-3.66,2,54.186,19.519543,-96.91556,4374.84,0.9,16.129032,14 / 16,87.3,89,4.041,220247,2014-11-08 13:56:35:307
1.1696,4.6831,9.6498,1.0083,4.8535,8.4615,0.1613,-0.1704,1.1883,0.2816,-0.1354,-0.4892,19.77,-26.69,-24.78,240.6,-29.76,-6.26,2,52.893,19.519543,-96.91556,4374.84,0.9,16.129032,14 / 16,87.3,89,4.041,220747,2014-11-08 13:56:35:807
1.0295,3.699,8.5784,0.3867,4.1869,8.8595,0.6428,-0.4878,-0.2811,-0.1093,0.2542,0.5133,22.92,-25.09,-23.97,243.38,-26.67,-1.49,2,53.101,19.519531,-96.91557,4380.65,1.58,16.129032,13 / 16,87.3,89,4.041,221248,2014-11-08 13:56:36:308
1.7717,4.0007,8.9818,0.6732,3.7751,9.0258,1.0985,0.2256,-0.044,0.2913,0.0403,0.4348,15.44,-30.06,-24.29,221.53,-22.64,-4.27,2,54.722,19.519531,-96.91557,4380.65,1.58,16.129032,15 / 16,87.3,89,4.041,221749,2014-11-08 13:56:36:809
0.3615,4.4269,7.7189,0.6185,4.268,8.8075,-0.257,0.1589,-1.0886,-0.7607,0.1525,0.5155,10.29,-34.26,-21.66,212.62,-24.1,-6.82,2,54.316,19.519531,-96.91557,4380.65,1.58,16.129032,15 / 16,87.3,89,4.041,222249,2014-11-08 13:56:37:309
0.6823,4.0785,8.8286,0.6403,3.5558,9.1168,0.0421,0.5227,-0.2882,0.9203,0.1188,0.212,7.25,-34.71,-22.04,203.55,-22.76,-3.88,2,54.663,19.519527,-96.91558,4381.61,0.9,16.129032,14 / 16,87.3,89,4.041,222749,2014-11-08 13:56:37:809
-0.5435,3.0813,9.9862,-0.1944,3.4701,9.1701,-0.3491,-0.3888,0.8161,-0.0044,0.4626,0.9364,-0.71,-35.87,-21.05,177.58,-22.11,0.21,2,55.541,19.519527,-96.91558,4381.61,0.9,16.129032,14 / 16,87.3,89,4.041,223250,2014-11-08 13:56:38:310
0.1233,4.0546,9.0692,-0.0427,4.0751,8.9198,0.166,-0.0205,0.1495,0.021,-0.0046,-0.2249,-13.89,-32.65,-21.06,146.52,-24.55,0.27,2,53.938,19.519527,-96.91559,4381.29,0.67,16.129032,15 / 16,87.3,89,4.041,223750,2014-11-08 13:56:38:810
-0.5782,4.0773,9.2488,0.0198,4.0703,8.922,-0.598,0.007,0.3268,0.0195,-0.7715,-0.6353,0.86,-37.42,-17.33,173.67,-26.33,2.87,2,54.932,19.519527,-96.91559,4381.29,0.67,16.129032,15 / 16,87.3,89,4.041,224250,2014-11-08 13:56:39:310
-0.1844,4.0582,8.6981,0.1108,4.1515,8.8839,-0.2951,-0.0933,-0.1858,0.1098,0.9115,0.8666,1.11,-37.56,-16.79,182.55,-25.05,-0.71,2,53.561,19.519527,-96.91559,4381.29,0.67,16.129032,15 / 16,87.3,89,4.041,224750,2014-11-08 13:56:39:810
1.7538,5.4265,8.9687,-0.7567,4.8176,8.5082,2.5105,0.6089,0.4605,-0.0527,-0.5921,0.1805,-9.54,-35.53,-18.59,152.63,-29.42,5.08,2,70.457,19.519527,-96.91559,4381.29,0.67,16.129032,15 / 16,87.3,89,4.041,225250,2014-11-08 13:56:40:310
0.6812,4.6615,8.5796,0.6663,4.8226,8.5129,0.0149,-0.161,0.0667,-0.4694,-0.4321,-0.7002,-9.09,-37.11,-14.04,157.97,-32.38,-5.94,2,74.971,19.519527,-96.91559,4381.29,0.67,16.129032,15 / 16,87.3,89,4.041,225754,2014-11-08 13:56:40:814
-0.3915,3.7745,7.6962,0.801,3.8953,8.9641,-1.1925,-0.1208,-1.268,-1.3921,-0.9764,-1.1352,7.27,-37.91,-14.73,198.24,-32.01,-4.26,2,69.737,19.519527,-96.91559,4381.29,0.67,16.129032,15 / 16,87.3,89,4.041,226254,2014-11-08 13:56:41:314
1.1133,3.8906,11.7376,1.6572,2.0754,9.4402,-0.5439,1.8152,2.2974,-1.1584,-1.0006,0.2676,14.54,-31.17,-24.18,216.17,-16.31,-5.23,2,69.093,19.519527,-96.91559,4381.29,0.67,16.129032,14 / 16,87.3,89,4.041,226755,2014-11-08 13:56:41:815
2.1644,1.5287,9.4703,2.1429,2.5803,9.2152,0.0214,-1.0516,0.255,0.6046,0.0102,0.1264,10.66,-30.92,-26.69,215.44,-15.25,-13.09,2,69.828,19.519527,-96.91559,4381.29,0.67,16.129032,14 / 16,87.3,89,4.041,227255,2014-11-08 13:56:42:315
0.9601,2.1775,4.7369,1.0505,3.3612,9.1526,-0.0904,-1.1836,-4.4156,-0.0644,-0.1522,0.0337,15.27,-31.5,-23.26,216.21,-20.4,-4.58,2,67.618,19.519527,-96.91559,4381.29,0.67,16.129032,15 / 15,87.3,89,4.041,227755,2014-11-08 13:56:42:815
2.6217,2.2338,8.9531,2.1676,2.7545,9.1588,0.454,-0.5207,-0.2057,0.2206,0.5258,0.283,7.63,-33.15,-25,208.11,-16.31,-13.32,2,53.51,19.519527,-96.91559,4381.29,0.67,16.129032,15 / 15,87.3,89,4.041,228255,2014-11-08 13:56:43:315
-1.1588,1.7813,6.5769,0.4904,3.502,9.1469,-1.6492,-1.7207,-2.57,-1.7718,-0.9657,0.2737,11.11,-35.21,-20.2,202.85,-21.27,-0.77,2,58.714,19.519527,-96.91559,4381.29,0.67,16.129032,15 / 15,87.3,89,4.041,228757,2014-11-08 13:56:43:817
2.575,0.0682,10.7476,1.5988,0.4062,9.6669,0.9762,-0.338,1.0807,-0.3499,-0.3482,0.2728,3.75,-28.71,-33.49,200.96,-7.35,-9.29,2,54.438,19.519527,-96.91559,4381.29,0.67,16.129032,15 / 15,87.3,89,4.041,229258,2014-11-08 13:56:44:318
1.8352,0.4776,6.3303,1.5408,0.1663,9.6834,0.2944,0.3113,-3.3532,0.7554,0.244,-0.2252,-0.84,-28.22,-36.45,192.07,2.97,-11.79,2,61.948,19.519527,-96.91559,4381.29,0.67,16.129032,14 / 15,87.3,89,4.041,229758,2014-11-08 13:56:44:818
2.0889,0.3675,9.9395,1.4007,0.0886,9.7057,0.6882,0.2789,0.2338,-0.3059,0.0864,-0.2284,2.29,-30.1,-35.03,193.23,-0.52,-8.21,2,56.453,19.519527,-96.91559,4381.29,0.67,16.129032,14 / 15,87.3,89,4.041,230258,2014-11-08 13:56:45:318
0.9972,-0.0383,9.3565,1.2112,0.0363,9.7315,-0.214,-0.0746,-0.375,-0.1488,0.0629,-0.0307,1.76,-30.32,-35.25,191.22,-0.06,-8.14,2,55.006,19.519527,-96.91559,4381.29,0.67,16.129032,14 / 15,87.3,89,4.041,230758,2014-11-08 13:56:45:818
0.2646,0.2586,9.8893,1.3531,-1.4062,9.6105,-1.559,2.7386,0.426,-0.3552,0.1547,-0.132,1.14,-27.1,-38.32,190.76,3.6,-6.92,2,54.447,19.519527,-96.91559,4381.29,0.67,16.129032,14 / 15,86.7,89,4.061,231259,2014-11-08 13:56:46:319
2.557,1.0534,9.1159,2.8187,0.157,9.3915,1.109,-0.7448,-0.4935,0.2757,-0.7427,0.444,-3.35,-31.22,-34.39,192.76,-0.92,-16.71,2,54.696,19.519527,-96.91559,4381.29,0.67,16.129032,14 / 16,86.7,89,4.061,231759,2014-11-08 13:56:46:819
3.1352,0.1018,9.1578,3.1363,0.0938,9.2911,0.3209,0.3084,0.1396,0.0376,0.1022,-0.1305,-7.68,-31.5,-33.83,186.29,-0.61,-19.52,2,54.416,19.519527,-96.91559,4381.29,0.67,16.129032,14 / 16,86.7,89,4.061,232259,2014-11-08 13:56:47:319
2.8695,0.0838,9.8509,2.8487,-0.2643,9.3801,0.4003,0.7838,0.2303,-0.2757,-0.0461,0.2071,-5.53,-31.11,-35.04,188.82,-0.51,-17.44,2,56.154,19.519527,-96.91559,4381.29,0.67,16.129032,15 / 16,86.7,89,4.061,232760,2014-11-08 13:56:47:820
2.6528,-0.2239,9.1554,2.7586,-0.0708,9.4104,0.4545,0.2755,0.2694,-0.0249,-0.0244,0.009,-5.53,-31.09,-34.99,187.52,0.4,-16.4,2,56.579,19.519527,-96.91559,4381.29,0.67,16.129032,15 / 16,86.7,89,4.061,233261,2014-11-08 13:56:48:321
2.964,0.583,9.4439,2.7123,0.2317,9.4213,-0.5516,-0.2377,-0.4933,-0.0185,-0.0815,0.0439,-4.99,-32.31,-34.22,188.39,-1.35,-16.06,2,54.483,19.519527,-96.91559,4381.29,0.67,16.129032,15 / 16,86.7,89,4.061,233762,2014-11-08 13:56:48:822
2.5235,0.5495,9.2715,2.6048,0.204,9.4522,-0.3267,0.2293,-0.1411,0.0083,0.2147,-0.0146,-5.28,-32.03,-34.31,187.01,-1.47,-16.37,2,54.885,19.519527,-96.91559,4381.29,0.67,16.129032,15 / 16,86.7,89,4.061,234262,2014-11-08 13:56:49:322
2.6851,0.2825,9.4176,2.5473,0.1617,9.4687,0.0146,0.1788,0.0493,-0.0346,0.0263,-0.0076,-4.74,-31.93,-34.48,187.01,-1.11,-14.81,2,55.17,19.519527,-96.91559,4381.29,0.67,16.129032,14 / 16,86.7,89,4.061,234762,2014-11-08 13:56:49:822
2.6049,0.2382,9.1482,2.5571,0.1835,9.4656,0.0076,0.1343,-0.2588,0.059,-0.0024,-0.0368,-5.4,-32.22,-34.63,187.61,-0.86,-14.96,2,54.968,19.519527,-96.91559,4381.29,0.67,16.129032,14 / 16,86.7,89,4.061,235262,2014-11-08 13:56:50:322
2.3655,0.097,9.3338,2.5905,0.0453,9.4582,-0.2251,0.0517,-0.1244,-0.0464,0.0315,0.0346,-4.61,-31.63,-34.48,186.83,-0.81,-14.26,2,53.979,19.519527,-96.91559,4381.29,0.67,16.129032,13 / 16,86.7,89,4.061,235762,2014-11-08 13:56:50:822
2.5738,0.158,9.2344,2.5856,0.0467,9.4595,-0.0118,0.1113,-0.2251,-0.0059,0.0156,-0.0322,-5.08,-31.41,-34.63,188.13,-0.27,-15.29,2,72.084,19.519527,-96.91559,4381.29,0.67,16.129032,13 / 16,86.7,89,4.061,236262,2014-11-08 13:56:51:322
1.9956,0.5926,9.5229,2.1697,0.3905,9.5556,-0.1741,0.202,-0.0327,0.1762,0.0354,-0.0342,-3.15,-32.57,-33.49,187.88,-2.28,-12.79,2,54.924,19.519527,-96.91559,4381.29,0.67,16.129032,15 / 16,86.7,89,4.061,236762,2014-11-08 13:56:51:822
2.2901,0.6847,8.6658,2.1163,1.0602,9.5167,0.1737,-0.3755,-0.8509,0.141,0.283,-0.3474,-1.2,-32.72,-31.3,192.39,-5.59,-14.07,2,54.979,19.519527,-96.91559,4381.29,0.67,16.129032,15 / 16,86.7,89,4.061,237262,2014-11-08 13:56:52:322
0.8847,2.1691,10.8517,1.0792,1.1191,9.6826,-0.1946,1.05,1.1691,-0.6695,0.7476,0.548,5.62,-31.28,-30.36,198.68,-6.55,-6.36,2,54.507,19.519527,-96.91559,4381.29,0.67,16.129032,14 / 16,86.7,89,4.061,237762,2014-11-08 13:56:52:822
0.0287,1.4904,8.6407,-1.5197,2.8821,9.2496,1.5485,-1.3917,-0.6089,0.8944,0.363,-0.4821,8.11,-33.6,-24.7,194.74,-5.57,-5.29,2,53.467,19.519527,-96.91559,4381.29,0.67,16.129032,14 / 16,86.7,89,4.061,238264,2014-11-08 13:56:53:324
-4.0414,3.3088,8.8143,-2.2848,2.1019,9.3022,-1.7566,1.2068,-0.488,0.2879,-0.0288,-0.3384,17.22,-32.07,-21.91,203.57,-12.38,13.8,2,53.704,19.519527,-96.91559,4381.29,0.67,16.129032,15 / 16,86.7,89,4.061,238764,2014-11-08 13:56:53:824
-2.0016,2.2122,7.835,-2.8633,2.9356,8.9081,0.8617,-0.7234,-1.0731,-0.1249,0.0046,0.3738,17.02,-33.81,-18.53,203.59,-17.73,16.05,2,55.015,19.519527,-96.91559,4381.29,0.67,16.129032,15 / 16,86.7,89,4.061,239272,2014-11-08 13:56:54:332
-3.0622,2.6851,9.663,-2.5485,2.1678,9.2182,-0.5137,0.5173,0.4447,0.7193,-0.2816,-0.9386,18.57,-31.26,-21.81,206.5,-13.02,16.24,2,54.779,19.519527,-96.91559,4381.29,0.67,16.129032,14 / 16,86.7,89,4.061,239772,2014-11-08 13:56:54:832
-2.7665,4.0414,7.4735,-3.111,3.0459,8.7872,0.3445,0.9955,-1.3137,0.0747,0.1325,0.3086,28.09,-26.24,-15.95,230.3,-17.59,19.82,2,54.92,19.519527,-96.91559,4381.29,0.67,16.129032,14 / 16,86.7,89,4.061,240273,2014-11-08 13:56:55:333
-3.0921,1.731,9.6331,-3.0422,2.666,8.9335,-0.0499,-0.935,0.6995,0.304,0.2718,0.6156,19.88,-32.16,-16.83,213.81,-13.84,16.79,2,54.757,19.519527,-96.91559,4381.29,0.67,16.129032,14 / 16,86.7,89,4.061,240773,2014-11-08 13:56:55:833
-3.0083,2.6983,9.8785,-2.251,2.5905,9.1865,-0.7573,0.1077,0.6919,0.0883,0.2881,0.0549,14.11,-33.26,-20.97,198.6,-15.32,13.77,2,55.204,19.519527,-96.91559,4381.29,0.67,16.129032,14 / 16,86.7,89,4.061,241274,2014-11-08 13:56:56:334
-3.2669,2.7617,6.3434,-2.7067,3.1473,8.8848,-0.5602,-0.3855,-2.5413,0.7051,-0.1996,-0.042,17.32,-33.13,-18.37,198.94,-18.63,14.88,2,55.62,19.519527,-96.91559,4381.29,0.67,16.129032,15 / 16,86.7,89,4.061,241774,2014-11-08 13:56:56:834
-2.0327,3.2489,8.7939,-2.3686,2.7481,9.1109,0.3359,0.5009,-0.317,-0.0937,0.0793,0.3145,13.04,-33.77,-20.65,195.66,-16.27,14.57,2,55.242,19.519527,-96.91559,4381.29,0.67,16.129032,15 / 16,86.7,89,4.061,242274,2014-11-08 13:56:57:334
-1.233,1.5359,9.0908,-1.9916,3.4887,8.9461,0.7586,-1.9528,0.1447,0.548,0.0551,0.4616,5.42,-34.95,-21.63,182.44,-15.48,11.91,2,55.449,19.519527,-96.91559,4381.29,0.67,16.129032,14 / 16,86.7,89,4.061,242774,2014-11-08 13:56:57:834
-2.6516,3.559,10.1095,-2.0899,3.0171,9.0939,-0.5617,0.5418,1.0156,-0.0142,-0.4577,-1.1867,11.47,-34.46,-20.24,193.7,-17.92,12.94,2,59.08,19.519527,-96.91559,4381.29,0.67,16.129032,14 / 16,86.7,89,4.061,243276,2014-11-08 13:56:58:336
-2.9066,3.3148,8.242,-3.1312,2.4224,8.9721,0.2247,0.8924,-0.73,-0.0263,-0.1583,0.3257,23.14,-29.16,-18.78,216.57,-14.28,20.37,2,62.611,19.519527,-96.91559,4381.29,0.67,16.129032,14 / 16,86.7,89,4.061,243777,2014-11-08 13:56:58:837
-2.0542,1.3324,6.7493,-3.3531,3.5996,8.4835,1.2989,-2.2672,-1.7343,1.2633,0.0925,0.7024,17.02,-33.96,-16.6,203.95,-16.69,19.65,2,62.848,19.519527,-96.91559,4381.29,0.67,16.129032,14 / 16,86.7,89,4.061,244279,2014-11-08 13:56:59:339
-4.3539,3.9265,8.6191,-3.5055,3.1921,8.5844,-0.8483,0.7344,0.0347,5.00E-04,-0.0346,-0.3094,18.38,-33.36,-17.22,204.86,-24.1,22.53,2,57.799,19.519547,-96.915565,4368.71,1.58,16.129032,15 / 16,86.7,89,4.061,244779,2014-11-08 13:56:59:839
-2.5474,2.9892,9.0261,-3.5565,3.0081,8.6297,1.0091,-0.019,0.3964,0.0478,-0.1405,0.4521,18.18,-33.62,-16.62,200.78,-18.69,24.24,2,57.212,19.519547,-96.915565,4368.71,1.58,16.129032,15 / 16,86.7,89,4.061,245279,2014-11-08 13:57:00:339
-3.3531,3.3758,8.1582,-3.8317,2.6766,8.6212,0.4786,0.6992,-0.4629,0.4035,-0.2237,-0.1625,23.18,-30.64,-16.92,211.5,-15.84,23.96,2,58.587,19.519547,-96.915565,4368.71,1.58,16.129032,15 / 16,86.7,89,4.061,245780,2014-11-08 13:57:00:840
-3.2513,3.1759,6.9192,-3.1456,4.5176,8.1158,0.2427,-0.6833,-0.6028,0.222,-0.3379,0.2074,24.61,-31.78,-12.44,219.53,-21.8,23.69,2,58.274,19.519547,-96.915565,4368.71,1.58,16.129032,15 / 16,86.7,89,4.061,246280,2014-11-08 13:57:01:340
-2.4588,7.6495,10.0772,-2.8209,4.6144,8.1805,0.192,0.405,1.2503,0.9174,-0.791,-0.5448,24.87,-31.3,-12.42,219.81,-22.85,20.53,2,58.573,19.519547,-96.915565,4368.71,1.58,16.129032,14 / 16,86.7,89,4.061,246780,2014-11-08 13:57:01:840
-3.644,3.3854,7.8997,-3.8826,4.8591,7.5819,0.2218,0.0191,-1.5773,-1.1872,-0.6056,0.7912,34.99,-21.44,-6.71,260.84,-33.58,30.74,2,57.172,19.519547,-96.915565,4368.71,1.58,16.129032,14 / 16,86.7,89,4.061,247280,2014-11-08 13:57:02:340
0.0479,8.691,3.1304,0.0278,8.2596,5.2867,0.5755,0.2578,1.453,1.5088,-0.1086,0.3247,30.12,-26.52,-11.92,255.46,-43.74,12.48,2,57.912,19.519547,-96.915565,4368.71,1.58,16.129032,14 / 16,86.7,89,4.061,247780,2014-11-08 13:57:02:840
0.0204,9.2775,2.7964,0.2458,9.1234,3.588,0.0116,-0.9244,-0.1128,0.1186,-0.1261,0.0778,27.08,-30.43,-4.55,254.52,-66.9,-0.75,2,56.006,19.519547,-96.915565,4368.71,1.58,16.129032,16 / 16,86.7,89,4.061,248280,2014-11-08 13:57:03:340
0.4453,8.8873,4.5586,0.1219,9.0322,3.8177,0.0337,0.6056,-0.4095,-0.2093,0.221,0.0495,25.58,-31.5,-3.17,248.14,-67.08,-1.83,2,60.996,19.519547,-96.915565,4368.71,1.58,16.129032,16 / 16,86.7,89,4.061,248780,2014-11-08 13:57:03:840
0.4621,8.8418,2.9125,0.638,9.248,3.1998,0.3939,0.7766,-0.8128,0.6944,0.6687,0.1281,22.15,-33.62,0.86,232.69,-70.57,-11.28,2,58.027,19.519547,-96.915565,4368.71,1.58,16.129032,16 / 16,86.7,89,4.061,249280,2014-11-08 13:57:04:340
0.4752,9.2404,2.5127,0.2209,9.5052,2.4028,-0.6219,-0.2743,-0.9998,0.2254,-0.4794,0.2337,23.8,-32.12,3.71,239.5,-75.76,-5.25,2,55.878,19.519547,-96.915565,4368.71,1.58,16.129032,15 / 16,86.7,89,4.061,249781,2014-11-08 13:57:04:841
0.8691,9.7049,1.6077,0.7173,9.6262,1.7296,0.1386,0.1625,-0.4463,-0.0571,0.0903,-0.0888,23.65,-32.38,4.42,227.72,-78.99,-22.53,2,53.951,19.519547,-96.915565,4368.71,1.58,16.129032,15 / 16,86.7,89,4.061,250281,2014-11-08 13:57:05:341
-0.0204,9.5852,1.1983,0.145,9.639,1.7997,-0.0134,0.1353,-0.3979,0.0703,0.15,-0.0234,24.4,-31.65,5.14,240.03,-78.64,-7.83,2,53.492,19.519547,-96.915565,4368.71,1.58,16.129032,15 / 16,86.7,89,4.061,250781,2014-11-08 13:57:05:841
0.2969,9.262,1.3144,0.128,9.6496,1.7436,0.0911,-0.0033,-0.2448,0.0503,0.1164,0.0088,23.86,-31.88,5.75,240.77,-79.46,-3.53,2,52.931,19.519547,-96.915565,4368.71,1.58,16.129032,14 / 16,86.7,89,4.061,251283,2014-11-08 13:57:06:343
-0.4202,9.3541,1.9585,0.1853,9.6314,1.8363,-0.2416,-0.0726,1.0595,-0.0532,0.2947,-0.0166,20.75,-32.55,8.92,229.49,-79.15,-5.76,2,61.947,19.519547,-96.915565,4368.71,1.58,16.129032,14 / 16,86.7,89,4.061,251785,2014-11-08 13:57:06:845
0.2861,9.4703,2.2374,0.2098,9.5498,2.2197,-0.223,0.0904,0.4247,0.1132,-0.0354,-0.0647,20.41,-33.13,7.96,228.26,-76.86,-5.4,2,53.249,19.519547,-96.915565,4368.71,1.58,16.129032,14 / 16,86.7,89,4.061,252285,2014-11-08 13:57:07:345
0.2562,9.8809,1.4485,0.3899,9.6402,1.7563,0.1116,-0.0454,0.0489,0.04,0.1117,-0.0395,18.2,-33.34,10.74,216.61,-79.43,-12.52,2,53.016,19.519547,-96.915565,4368.71,1.58,16.129032,14 / 16,86.7,89,4.061,252785,2014-11-08 13:57:07:845
0.5411,9.5948,2.0722,0.3817,9.6295,1.8158,-0.0932,0.0622,0.1187,-0.0337,0.0861,-0.0034,17.35,-33.51,10.98,214.96,-79.37,-12.32,2,53.421,19.519547,-96.915565,4368.71,1.58,16.129032,14 / 16,86.7,89,4.061,253286,2014-11-08 13:57:08:346
0.2658,9.6977,1.7957,0.3481,9.6383,1.7752,-0.0033,-0.022,0.261,0.0991,0.1017,0.0027,17.86,-33.4,10.59,218.23,-79.3,-10.4,2,53.285,19.519547,-96.915565,4368.71,1.58,16.129032,14 / 16,86.7,89,4.061,253787,2014-11-08 13:57:08:847
0.3962,9.7528,2.053,0.4087,9.658,1.6511,0.0402,0.0565,0.2044,-0.0132,-0.0412,0.0093,17.47,-33.62,11.77,212.33,-80.28,-14.31,2,52.875,19.519547,-96.915565,4368.71,1.58,16.129032,13 / 16,86.7,89,4.061,254287,2014-11-08 13:57:09:347
0.4262,9.6786,2.0387,0.3608,9.658,1.662,0.027,0.0421,0.2294,-0.0039,-0.0261,-0.0176,17.77,-33.66,11.47,217,-80.01,-12.25,2,52.67,19.519547,-96.915565,4368.71,1.58,16.129032,13 / 16,86.7,89,4.061,254788,2014-11-08 13:57:09:848
0.328,9.6067,1.8567,0.3104,9.6615,1.6522,-0.0303,-0.0452,0.0465,0.0268,0.0627,-0.019,17.84,-33.26,11.39,218.22,-80.05,-11.09,2,64.116,19.519547,-96.915565,4368.71,1.58,16.129032,14 / 16,86.7,89,4.061,255288,2014-11-08 13:57:10:348
0.413,9.6989,1.9465,0.3214,9.665,1.6292,0.0318,-0.1792,0.0479,0.0102,-0.0083,0.0173,17.75,-33.49,11.47,218.31,-80.25,-11.16,2,53.062,19.519547,-96.915565,4368.71,1.58,16.129032,14 / 16,86.7,89,4.061,255788,2014-11-08 13:57:10:848
0.4537,9.5792,1.804,0.4069,9.6599,1.6406,0.06,-0.04,0.0952,0.0171,-0.0083,-0.0156,18.2,-33.19,11.69,216.77,-80.15,-12.94,2,53.055,19.519547,-96.915565,4368.71,1.58,16.129032,13 / 15,86.7,89,4.061,256289,2014-11-08 13:57:11:349
0.4501,9.6055,1.8723,0.3719,9.665,1.6184,0.0411,-0.0822,0.054,0.0298,-0.0063,-0.0071,17.92,-33.62,11.56,214.95,-80.25,-12.94,2,65.148,19.519547,-96.915565,4368.71,1.58,16.129032,13 / 15,86.7,89,4.061,256789,2014-11-08 13:57:11:849
0.2861,9.5541,1.8543,0.3269,9.6707,1.5938,0.013,0.0162,0.1456,0.0151,0.0256,-0.0468,18.22,-33.23,12.43,215.1,-80.41,-13.14,2,53.205,19.519547,-96.915565,4368.71,1.58,16.129032,14 / 15,86.7,89,4.061,257289,2014-11-08 13:57:12:349
-1.1732,7.9883,3.5757,-0.4499,9.512,2.3429,-0.7089,-1.276,0.2117,-0.3157,0.0149,-0.5092,18.08,-33.36,11.38,232.39,-75.92,10.87,2,56.253,19.519547,-96.915565,4368.71,1.58,16.129032,14 / 15,86.7,89,4.061,257789,2014-11-08 13:57:12:849
-5.7126,0.8559,9.3182,-4.1045,2.4641,8.5587,-0.9497,-0.7738,1.0731,-0.2889,0.4514,-2.1209,36.69,-13.14,-14.96,259.12,-14.55,25.62,2,60.222,19.519547,-96.915565,4368.71,1.58,16.129032,14 / 15,86.7,89,4.061,258292,2014-11-08 13:57:13:352
-5.4468,0.018,8.6443,-5.9852,1.2589,7.6657,1.2794,-1.029,1.4479,0.5831,0.203,-0.314,38.96,7.96,-12.65,295.54,-5.71,36.42,2,65.814,19.519547,-96.915565,4368.71,1.58,16.129032,14 / 15,86.7,89,4.061,258792,2014-11-08 13:57:13:852
-6.3003,1.7047,6.6822,-6.0128,1.1032,7.6681,0.3206,0.307,-0.4256,0.7324,-0.2071,-0.7268,32.96,17.58,-19.06,326.91,-6.46,38.1,2,64.067,19.519585,-96.915565,4366.45,2.02,16.129032,14 / 15,86.7,89,4.061,259293,2014-11-08 13:57:14:353
-5.5019,0.7709,7.6758,-5.2512,1.062,8.2139,-0.5296,-0.5712,-0.9032,1.0408,-0.6104,-1.1806,16.81,21.21,-32.76,353.58,-8.14,34.78,2,58.61,19.519585,-96.915565,4366.45,2.02,16.129032,14 / 15,86.7,89,4.061,259794,2014-11-08 13:57:14:854
-4.4209,1.9154,8.2875,-4.5937,0.6007,8.6434,0.1728,1.3146,-0.3558,0.546,-0.0307,-0.1823,0.13,18.61,-39.17,41.39,-4.26,30.52,2,69.156,19.519585,-96.915565,4366.45,2.02,16.129032,14 / 15,86.7,89,4.061,260294,2014-11-08 13:57:15:354
-4.8279,2.818,8.5557,-4.7385,2.1937,8.3009,-0.0895,0.6243,0.2548,0.6202,0.6056,1.5046,3.2,13.12,-41.45,40.2,-12.93,29.72,2,58.885,19.519585,-96.915565,4366.45,2.02,16.129032,14 / 15,86.7,89,4.061,260794,2014-11-08 13:57:15:854
-3.3818,6.2106,8.9076,-3.1573,5.1349,7.7353,-0.2246,1.0757,1.1723,-0.141,-0.2591,0.1593,9.8,4.12,-42.49,16.42,-33.15,23.84,2,58.834,19.519585,-96.915565,4366.45,2.02,16.129032,14 / 15,86.7,88,3.999,261294,2014-11-08 13:57:16:354
-3.2621,5.9819,7.6471,-3.3585,4.9843,7.749,0.0964,0.9976,-0.102,0.4963,-0.3235,-0.0144,9.6,5.66,-42.34,15.7,-30.55,23.43,2,63.856,19.519585,-96.915565,4366.45,2.02,16.129032,14 / 15,86.7,88,3.999,261795,2014-11-08 13:57:16:855
-3.8008,4.8147,5.6371,-2.972,6.9184,6.2828,-0.8288,-2.1037,-0.6456,0.0771,-1.3519,-1.5034,-4.89,-12.56,-41.44,39.11,-44.78,22.45,2,69.206,19.519585,-96.915565,4366.45,2.02,16.129032,13 / 15,86.7,88,3.999,262296,2014-11-08 13:57:17:356
-6.6882,4.9177,7.1982,-3.5403,5.649,7.1921,-3.1479,-0.7313,0.0061,0.3547,-0.2274,-0.6612,-12.41,-16.32,-38.04,78.76,-35.62,21.61,2,69.495,19.519585,-96.91555,4367.42,0.67,16.129032,13 / 15,86.7,88,3.999,262796,2014-11-08 13:57:17:856
-5.7569,4.9847,6.3698,-2.8834,5.7176,7.4274,-2.8734,-0.7328,-1.0576,-0.1864,-1.7298,-0.6697,-8.26,-12.26,-40.8,69.29,-36.81,29.03,2,74.655,19.519585,-96.91555,4367.42,0.67,16.129032,13 / 15,86.7,88,3.999,263297,2014-11-08 13:57:18:357
-2.7737,4.039,9.7408,-3.0654,3.9849,8.4199,0.2917,0.0541,1.3209,-1.0096,-1.1535,-1.6703,-15.89,-14.49,-36.3,92.66,-23.98,20,2,71.478,19.519585,-96.91555,4367.42,0.67,16.129032,15 / 15,86.7,88,3.999,263798,2014-11-08 13:57:18:858
-0.3962,4.367,9.5589,-1.0996,3.6933,9.0178,0.7033,0.6737,0.541,0.2381,-0.2245,0.1696,-19.66,-17.45,-32.72,102.21,-20.86,8.92,2,65.742,19.519585,-96.91555,4367.42,0.67,16.129032,15 / 15,86.7,88,3.999,264298,2014-11-08 13:57:19:358
-1.3384,3.4345,8.7927,-1.5729,3.311,9.0958,0.2346,0.1234,-0.3031,-0.0586,-0.0693,-0.2496,-18.05,-21.08,-31.41,114.5,-19.73,9.81,2,60.176,19.51958,-96.91554,4367.74,2.02,16.129032,15 / 15,86.7,88,3.999,264799,2014-11-08 13:57:19:859
-1.81,1.6005,6.0525,-1.9375,3.5109,8.9493,0.1275,-1.9104,-2.8968,0.5504,0.4775,-0.6031,-12.95,-27.92,-28.13,128.98,-19.38,9.54,2,60.432,19.51958,-96.91554,4367.74,2.02,16.129032,14 / 16,86.7,88,3.999,265299,2014-11-08 13:57:20:359
-3.6452,1.8687,7.3849,-3.5963,2.7474,8.6999,-0.0489,-0.8788,-1.315,-0.2928,0.14,-0.0612,-2.29,-29.89,-29.55,147.81,-16.06,19.91,2,58.292,19.51958,-96.91554,4367.74,2.02,16.129032,14 / 16,86.7,88,3.999,265799,2014-11-08 13:57:20:859
-5.4983,0.6536,8.2612,-3.9629,2.0823,8.7252,-1.5353,-1.4286,-0.464,0.0522,0.0071,0.3865,-5.98,-25.09,-33.58,130.51,-16.33,22.35,2,57.674,19.51958,-96.91554,4367.74,2.02,16.129032,16 / 16,86.7,88,3.999,266299,2014-11-08 13:57:21:359
-3.2406,4.2234,11.3689,-3.3791,1.6905,9.0496,0.1385,2.5328,2.3193,0.2879,-0.3377,-0.4189,-1.18,-27.34,-32.61,140.88,-11.22,22.85,2,57.711,19.51958,-96.915535,4367.74,0.67,16.129032,16 / 16,86.7,88,3.999,266799,2014-11-08 13:57:21:859
-6.1052,3.2046,7.6064,-4.7027,2.0691,8.3531,-1.4025,1.1356,-0.7467,-0.2127,0.0298,-1.1916,13.34,-33.66,-21.55,172.88,-18.02,26.5,2,69.116,19.51958,-96.915535,4367.74,0.67,16.129032,14 / 16,86.7,88,3.999,267299,2014-11-08 13:57:22:359
-4.2066,2.3296,10.3669,-4.6518,1.7662,8.4505,0.4452,0.5633,1.9164,0.0747,-0.0754,0.6827,6.65,-31.97,-28.24,168.94,-15.17,29.22,2,66.828,19.51958,-96.915535,4367.74,0.67,16.129032,14 / 16,86.7,88,3.999,267800,2014-11-08 13:57:22:860
-7.2389,0.0215,10.0006,-4.5693,1.4705,8.5516,-2.6696,-1.449,1.449,0.7212,1.0379,-1.762,16.23,-31.18,-24.08,186.07,-8.62,28.12,2,72.545,19.51958,-96.915535,4367.74,0.67,16.129032,15 / 16,86.7,88,3.999,268301,2014-11-08 13:57:23:361
-8.3821,1.488,9.1518,-6.9318,0.4011,6.9253,-1.4503,1.0869,2.2266,-0.9691,0.253,0.7571,23.97,-28.15,-20.86,189.17,-3.45,44.76,2,68.131,19.51958,-96.915535,4367.74,0.67,16.129032,15 / 16,86.7,88,3.999,268801,2014-11-08 13:57:23:861
-6.6343,0.4106,6.3231,-6.7813,0.1377,7.0828,0.147,0.2729,-0.7597,0.5465,-0.103,-0.5716,16.47,-25.69,-30,160.21,-0.8,43.75,2,57.368,19.519571,-96.91554,4368.06,2.02,16.129032,14 / 16,86.7,88,3.999,269301,2014-11-08 13:57:24:361
-3.5925,-1.1157,3.79,-6.3741,0.9662,7.3897,2.7816,-2.0819,-3.5997,0.2611,-0.5734,1.2323,24.57,-26.91,-20.82,191.76,-0.96,40.26,2,64.688,19.519571,-96.91554,4368.06,2.02,16.129032,14 / 16,86.7,88,3.999,269801,2014-11-08 13:57:24:861
-5.5138,0.8368,7.7225,-6.2958,0.6677,7.4892,0.7819,0.169,0.2333,0.0337,0.1086,0.9344,21.25,-27.79,-24.12,187.89,-2.48,39.62,2,66.904,19.519571,-96.91554,4368.06,2.02,16.129032,15 / 16,86.7,88,3.999,270301,2014-11-08 13:57:25:361
-7.6231,0.4693,9.9814,-5.6743,0.4063,7.988,-1.9488,0.063,1.9935,0.9159,-0.203,0.5097,13.27,-28.35,-28.47,168.89,-7.7,35.44,2,56.512,19.519567,-96.91555,4367.74,2.47,16.129032,15 / 16,86.7,88,3.999,270801,2014-11-08 13:57:25:861
-6.7564,1.8148,8.9112,-5.1892,0.7776,8.2848,-1.5672,1.0372,0.6264,0.8095,-0.09,-0.8368,20.39,-28.75,-23.74,185.62,-3.72,34.94,2,60.432,19.519567,-96.91555,4367.74,2.47,16.129032,15 / 16,86.7,88,3.999,271302,2014-11-08 13:57:26:362
-6.1591,0.9708,7.1419,-5.756,0.7463,7.9046,-0.4031,0.2245,-0.7627,-0.4084,0.6124,-0.5255,24.34,-28.5,-19.27,196.5,-8.56,30.7,2,57.944,19.519566,-96.91556,4367.74,1.8,16.129032,15 / 16,86.7,88,3.999,271803,2014-11-08 13:57:26:863
-6.4189,-0.1915,9.3111,-5.9272,0.7378,7.7778,-0.4916,-0.9293,1.5333,-0.8017,0.0727,1.1784,16.17,-29.53,-26.42,173.73,-4.31,37.31,2,57.741,19.519564,-96.91557,4367.74,1.58,16.129032,13 / 16,86.7,88,3.999,272304,2014-11-08 13:57:27:364
-6.2836,1.5742,6.6056,-6.474,0.3747,7.3565,0.1904,1.1995,-0.7509,-0.2601,0.1125,0.4026,9.54,-24.14,-34.95,145.51,-2.19,41.35,2,58.715,19.519564,-96.91557,4367.74,1.58,16.129032,13 / 16,86.7,88,3.999,272804,2014-11-08 13:57:27:864
-6.2489,0.4142,7.5346,-6.1317,0.6979,7.6214,-0.1172,-0.2837,-0.0869,0.1191,0.1137,0.1908,5.17,-23.26,-36.21,137.98,-4.08,38.82,2,64.147,19.519564,-96.91558,4368.06,1.13,16.129032,15 / 16,86.7,88,3.999,273306,2014-11-08 13:57:28:366
-4.3299,1.7849,7.859,-5.9556,1.3068,7.6807,1.6257,0.4781,0.1782,-0.2981,0.0554,0.152,1.74,-22.15,-37.41,130.12,-7.36,38.14,2,58.358,19.519564,-96.91558,4368.06,1.13,16.129032,15 / 16,86.7,88,3.999,273806,2014-11-08 13:57:28:866
-5.6503,1.7466,7.8578,-5.73,1.399,7.8346,0.0797,0.3475,0.0232,0.0678,-0.0449,0.0873,-1.16,-19.58,-39.13,124.1,-7.57,36.47,2,58.269,19.519571,-96.91558,4368.06,1.8,16.129032,14 / 16,86.7,88,3.999,274306,2014-11-08 13:57:29:366
